Num,Gender,Age,Height,Status,Others,,,,,,,,,,,,,,,,,
6,female,24,145,²½ÐÐ,Àîç÷,,,,,,,,,,,,,,,,,
TimeStamp[0],Acce_x[0],Acce_y[0],Acce_z[0],Gyro_x[0],Gyro_y[0],Gyro_z[0],EMG[0],EMG[1],TimeStamp[1],Acce_x[1],Acce_y[1],Acce_z[1],Gyro_x[1],Gyro_y[1],Gyro_z[1],TimeStamp[2],Acce_x[2],Acce_y[2],Acce_z[2],Gyro_x[2],Gyro_y[2],Gyro_z[2]
33604,-9.3737,2.5541,2.9079,-0.0991,-0.6349,0.7947,1.7808,1.6575,32015,0.4598,-9.99,-1.7645,0.0107,-0.0309,0.0117,32301,0.3418,9.5085,-1.9619,0.0085,-0.017,0.0085
33605,-9.2967,2.5709,2.879,-0.1023,-0.621,0.7936,1.7808,1.6575,32016,0.455,-9.9972,-1.7645,0.0117,-0.0352,0.0138,32302,0.3587,9.5061,-1.9691,0.0085,-0.017,0.0053
33606,-9.2462,2.5757,2.8646,-0.114,-0.5976,0.7872,1.7808,1.6575,32017,0.4405,-10.0068,-1.7717,0.0149,-0.0458,0.0149,32303,0.3659,9.511,-1.945,0.0075,-0.017,0.0032
33607,-9.1739,2.5733,2.8598,-0.1268,-0.5806,0.7776,1.7808,1.6583,32018,0.4405,-10.0141,-1.7838,0.0181,-0.0618,0.0192,32304,0.3755,9.511,-1.9258,0.0064,-0.0202,0
33608,-9.1258,2.5733,2.8646,-0.1534,-0.5529,0.767,1.7808,1.6575,32018,0.4405,-10.0141,-1.7838,0.0181,-0.0618,0.0192,32305,0.3924,9.5013,-1.921,0.0053,-0.0213,-0.0032
33609,-9.0728,2.5781,2.8646,-0.1747,-0.5316,0.7521,1.7808,1.6583,32020,0.4502,-10.0068,-1.7428,0.0266,-0.0714,0.0202,32306,0.402,9.4941,-1.9258,0.0043,-0.0213,-0.0064
33610,-9.0536,2.5854,2.9079,-0.2131,-0.4996,0.7393,1.78,1.6575,32021,0.4477,-9.9852,-1.7308,0.0277,-0.0735,0.0213,32307,0.3731,9.4941,-1.9258,0.0043,-0.0213,-0.0117
33611,-9.0223,2.5926,2.9368,-0.2429,-0.4645,0.7169,1.7808,1.6575,32022,0.4526,-9.978,-1.7332,0.0277,-0.0703,0.0213,32308,0.3563,9.4965,-1.9113,0.0032,-0.0277,-0.0128
33612,-9.0319,2.5926,2.9681,-0.2908,-0.441,0.6999,1.7808,1.6575,32023,0.4526,-9.9587,-1.7501,0.0266,-0.0671,0.0202,32309,0.3707,9.4917,-1.8921,0.0032,-0.0352,-0.0181
33613,-9.0512,2.5902,2.9657,-0.343,-0.4059,0.6701,1.78,1.6575,32024,0.4502,-9.9683,-1.7813,0.0256,-0.065,0.0213,32310,0.3852,9.4965,-1.9065,0.0021,-0.0383,-0.0202
33614,-9.0897,2.5709,2.9753,-0.3792,-0.3824,0.6392,1.7808,1.6575,32025,0.4237,-10.002,-1.7838,0.0266,-0.066,0.0213,32310,0.3852,9.4965,-1.9065,0.0021,-0.0383,-0.0202
33615,-9.1138,2.5589,2.9657,-0.4357,-0.3483,0.6168,1.78,1.6575,32026,0.3755,-9.9996,-1.7765,0.0298,-0.0714,0.0213,32311,0.3948,9.4965,-1.9162,0.0021,-0.0405,-0.0256
33616,-9.1138,2.5589,2.9657,-0.4357,-0.3483,0.6168,1.78,1.6575,32026,0.3755,-9.9996,-1.7765,0.0298,-0.0714,0.0213,32311,0.3948,9.4965,-1.9162,0.0021,-0.0405,-0.0256
33617,-9.1354,2.5228,2.9633,-0.4719,-0.326,0.5934,1.78,1.6575,32027,0.3539,-9.9948,-1.7813,0.032,-0.0778,0.0213,32313,0.39,9.4869,-1.9041,0,-0.0405,-0.0288
33618,-9.1547,2.5107,2.9561,-0.5252,-0.2961,0.5561,1.78,1.6575,32028,0.3418,-9.978,-1.8006,0.0362,-0.0842,0.0213,32314,0.39,9.4941,-1.8897,0,-0.0383,-0.032
33619,-9.1499,2.4722,2.9272,-0.5614,-0.277,0.5177,1.7808,1.6575,32029,0.325,-9.9539,-1.7958,0.0373,-0.0916,0.0192,32315,0.3635,9.4893,-1.8752,-0.0011,-0.0352,-0.0341
33620,-9.1354,2.4385,2.8983,-0.6136,-0.2461,0.4911,1.78,1.6583,32030,0.3274,-9.9563,-1.7958,0.0394,-0.0959,0.016,32316,0.349,9.4821,-1.8849,0,-0.0341,-0.0352
33621,-9.1089,2.4337,2.8742,-0.6487,-0.2173,0.4538,1.7808,1.6567,32031,0.3346,-9.9587,-1.7741,0.0415,-0.1044,0.0138,32317,0.3539,9.4797,-1.88,0.0011,-0.0266,-0.0373
33622,-9.0849,2.4144,2.8405,-0.7009,-0.1992,0.4282,1.78,1.6575,32032,0.3466,-9.9563,-1.7862,0.0415,-0.1076,0.0117,32318,0.3153,9.4773,-1.868,0.0011,-0.0234,-0.0394
33623,-9.0488,2.4096,2.8165,-0.735,-0.1704,0.392,1.7808,1.6583,32033,0.337,-9.9635,-1.7525,0.0415,-0.1087,0.0075,32319,0.3105,9.4917,-1.8897,0.0011,-0.0245,-0.0405
33624,-9.0295,2.4096,2.79,-0.784,-0.1502,0.3643,1.7792,1.6575,32034,0.337,-9.9683,-1.7428,0.0426,-0.1119,0.0032,32320,0.3322,9.4941,-1.8969,0.0032,-0.0192,-0.0405
33625,-9.044,2.3928,2.7611,-0.832,-0.1204,0.327,1.7808,1.6575,32035,0.3298,-9.9707,-1.7501,0.0415,-0.115,0.0011,32321,0.3322,9.5158,-1.8969,0.0053,-0.0181,-0.0405
33626,-9.0728,2.3928,2.7755,-0.8639,-0.0991,0.3025,1.7808,1.6575,32036,0.3105,-9.9804,-1.7188,0.0405,-0.1225,-0.0032,32322,0.3057,9.5182,-1.88,0.0053,-0.0202,-0.0394
33627,-9.0969,2.3904,2.7779,-0.9119,-0.0703,0.2684,1.78,1.6567,32037,0.3178,-9.978,-1.6706,0.0426,-0.1278,-0.0064,32323,0.3057,9.5182,-1.8921,0.0064,-0.0192,-0.0405
33628,-9.1523,2.3807,2.8092,-0.9428,-0.0522,0.2354,1.7808,1.6575,32038,0.337,-9.9707,-1.6321,0.0405,-0.1257,-0.0117,32324,0.3081,9.5037,-1.9162,0.0096,-0.017,-0.0415
33629,-9.1763,2.3711,2.8116,-0.9875,-0.0277,0.2141,1.7808,1.6575,32038,0.337,-9.9707,-1.6321,0.0405,-0.1257,-0.0117,32324,0.3081,9.5037,-1.9162,0.0096,-0.017,-0.0415
33630,-9.2125,2.323,2.7972,-1.0163,0.261,0.1822,1.78,1.6575,32040,0.3611,-9.9683,-1.6321,0.032,-0.1214,-0.0181,32326,0.2648,9.511,-1.9017,0.0128,-0.0256,-0.0415
33631,-9.2413,2.2821,2.7828,-1.0535,0.0117,0.1619,1.7808,1.6575,32041,0.3515,-9.9611,-1.6249,0.0298,-0.1204,-0.0213,32327,0.2672,9.4941,-1.9041,0.0149,-0.0266,-0.0415
33632,-9.2413,2.2821,2.7828,-1.0535,0.0117,0.1619,1.7808,1.6575,32042,0.3587,-9.9683,-1.6441,0.0256,-0.1108,-0.0266,32328,0.2455,9.4965,-1.9113,0.0181,-0.0181,-0.0415
33633,-9.3039,2.2098,2.7587,-1.1015,0.0437,0.115,1.7808,1.6583,32043,0.3587,-9.9755,-1.6345,0.0224,-0.1033,-0.033,32329,0.1974,9.4965,-1.8873,0.0192,-0.0138,-0.0394
33634,-9.34,2.1737,2.7707,-1.1217,0.0629,0.0895,1.7808,1.6575,32044,0.3346,-9.9852,-1.6249,0.017,-0.0991,-0.0394,32330,0.1565,9.4845,-1.8512,0.017,-0.0021,-0.0362
33635,-9.34,2.1737,2.7707,-1.1217,0.0629,0.0895,1.7808,1.6575,32044,0.3346,-9.9852,-1.6249,0.017,-0.0991,-0.0394,32330,0.1565,9.4845,-1.8512,0.017,-0.0021,-0.0362
33636,-9.3593,2.128,2.7659,-1.1302,0.0746,0.0735,1.78,1.6575,32046,0.3996,-9.9587,-1.6562,0.0107,-0.0959,-0.0469,32332,0.1011,9.4628,-1.7862,0.0149,-0.0053,-0.0309
33637,-9.3521,1.8391,2.932,-1.0866,0.1523,-0.0341,1.7808,1.6575,32052,0.455,-9.9707,-1.6875,-0.0043,-0.0682,-0.0735,32338,0.2841,9.4821,-1.9234,0.0192,0.0352,-0.032
33638,-9.3521,1.8391,2.932,-1.0866,0.1523,-0.0341,1.7808,1.6575,32052,0.455,-9.9707,-1.6875,-0.0043,-0.0682,-0.0735,32338,0.2841,9.4821,-1.9234,0.0192,0.0352,-0.032
33639,-9.3521,1.8391,2.932,-1.0866,0.1523,-0.0341,1.7808,1.6575,32052,0.455,-9.9707,-1.6875,-0.0043,-0.0682,-0.0735,32338,0.2841,9.4821,-1.9234,0.0192,0.0352,-0.032
33640,-9.34,1.8175,2.9489,-1.0706,0.1662,-0.0458,1.7808,1.6575,32054,0.4044,-10.0189,-1.6658,-0.0117,-0.0511,-0.0842,32340,0.2504,9.4893,-1.9234,0.0202,0.0298,-0.032
33641,-9.34,1.7934,2.9777,-1.0397,0.1768,-0.0533,1.78,1.6575,32054,0.4044,-10.0189,-1.6658,-0.0117,-0.0511,-0.0842,32340,0.2504,9.4893,-1.9234,0.0202,0.0298,-0.032
33642,-9.34,1.7934,2.9777,-1.0397,0.1768,-0.0533,1.78,1.6575,32054,0.4044,-10.0189,-1.6658,-0.0117,-0.0511,-0.0842,32340,0.2504,9.4893,-1.9234,0.0202,0.0298,-0.032
33643,-9.405,1.7476,3.0018,-0.9822,0.2035,-0.0724,1.78,1.6575,32056,0.4477,-10.0141,-1.6802,-0.0128,-0.0437,-0.0863,32342,0.207,9.4965,-1.8993,0.0213,0.0266,-0.032
33644,-9.405,1.7476,3.0018,-0.9822,0.2035,-0.0724,1.7808,1.6575,32056,0.4477,-10.0141,-1.6802,-0.0128,-0.0437,-0.0863,32342,0.207,9.4965,-1.8993,0.0213,0.0266,-0.032
33645,-9.405,1.7476,3.0018,-0.9822,0.2035,-0.0724,1.7808,1.6575,32056,0.4477,-10.0141,-1.6802,-0.0128,-0.0437,-0.0863,32342,0.207,9.4965,-1.8993,0.0213,0.0266,-0.032
33646,-9.405,1.7476,3.0018,-0.9822,0.2035,-0.0724,1.7808,1.6575,32056,0.4477,-10.0141,-1.6802,-0.0128,-0.0437,-0.0863,32342,0.207,9.4965,-1.8993,0.0213,0.0266,-0.032
33647,-9.4363,1.7284,3.0307,-0.9449,0.2205,-0.0842,1.7808,1.6575,32057,0.4068,-10.0261,-1.661,-0.0149,-0.0479,-0.0895,32343,0.2022,9.4845,-1.8993,0.0202,0.0256,-0.0309
33648,-9.4363,1.7284,3.0307,-0.9449,0.2205,-0.0842,1.7808,1.6575,32057,0.4068,-10.0261,-1.661,-0.0149,-0.0479,-0.0895,32343,0.2022,9.4845,-1.8993,0.0202,0.0256,-0.0309
33649,-9.5134,1.7139,3.0524,-0.9183,0.2301,-0.0959,1.7808,1.6575,32058,0.4261,-10.0044,-1.673,-0.0224,-0.0543,-0.0959,32344,0.1757,9.4893,-1.8945,0.0202,0.0245,-0.0288
33650,-9.5567,1.7164,3.0668,-0.8788,0.245,-0.1023,1.7808,1.6575,32059,0.5176,-9.9467,-1.7645,-0.017,-0.0511,-0.0927,32344,0.1757,9.4893,-1.8945,0.0202,0.0245,-0.0288
33651,-9.6241,1.7212,3.0764,-0.8543,0.2567,-0.1161,1.78,1.6575,32060,0.5079,-9.9635,-1.7308,-0.0149,-0.0352,-0.0927,32346,0.1926,9.4748,-1.9282,0.0224,0.0192,-0.0256
33652,-9.6795,1.726,3.1077,-0.8192,0.2706,-0.1246,1.78,1.6567,32061,0.4502,-9.9467,-1.7139,-0.0138,-0.0309,-0.0937,32347,0.2022,9.4748,-1.945,0.0245,0.0224,-0.0224
33653,-9.6795,1.726,3.1077,-0.8192,0.2706,-0.1246,1.78,1.6575,32062,0.4381,-9.9322,-1.7067,-0.017,-0.0149,-0.0948,32348,0.1757,9.4941,-1.933,0.0213,0.0383,-0.0202
33654,-9.6939,1.7332,3.1342,-0.7989,0.2812,-0.1342,1.78,1.6575,32063,0.455,-9.9563,-1.7091,-0.017,-0.0043,-0.0959,32348,0.1757,9.4941,-1.933,0.0213,0.0383,-0.0202
33655,-9.7035,1.7404,3.1679,-0.7713,0.2898,-0.1406,1.78,1.6575,32063,0.455,-9.9563,-1.7091,-0.017,-0.0043,-0.0959,32349,0.1035,9.4821,-1.9065,0.0202,0.0426,-0.0149
33656,-9.7011,1.7549,3.1824,-0.7499,0.2972,-0.1491,1.78,1.6575,32064,0.5031,-9.9298,-1.7452,-0.0096,0.0064,-0.0927,32350,0.1035,9.4724,-1.8993,0.0181,0.0352,-0.0128
33657,-9.6602,1.7765,3.1944,-0.7393,0.3015,-0.1545,1.7808,1.6575,32065,0.5368,-9.9202,-1.7284,-0.0085,0.0181,-0.0895,32351,0.1348,9.4532,-1.9089,0.0181,0.033,-0.0075
33658,-9.6361,1.791,3.204,-0.7286,0.3079,-0.1598,1.78,1.6575,32066,0.5344,-9.9274,-1.7019,-0.0117,0.0224,-0.0895,32352,0.1517,9.4628,-1.9017,0.0213,0.0341,-0.0043
33659,-9.5808,1.7982,3.2425,-0.7254,0.3132,-0.1619,1.7808,1.6583,32067,0.5392,-9.9563,-1.7019,-0.0138,0.017,-0.0874,32353,0.1637,9.4845,-1.9186,0.0234,0.0383,-0.0011
33660,-9.5591,1.815,3.2546,-0.7254,0.3196,-0.1641,1.7808,1.6575,32068,0.5657,-9.9852,-1.7188,-0.0128,0.0224,-0.0863,32354,0.1637,9.4821,-1.9354,0.0234,0.0383,0.0011
33661,-9.5591,1.815,3.2546,-0.7254,0.3196,-0.1694,1.78,1.6575,32069,0.5488,-10.0117,-1.7164,-0.0085,0.033,-0.082,32355,0.1685,9.4965,-1.9258,0.0234,0.0373,0.0075
33662,-9.5158,1.8439,3.2738,-0.7318,0.3302,-0.1704,1.7808,1.6575,32070,0.5224,-10.0357,-1.7188,-0.0064,0.0426,-0.082,32356,0.1637,9.5278,-1.9234,0.0245,0.0394,0.0085
33663,-9.5013,1.8488,3.2642,-0.7382,0.3388,-0.1715,1.7808,1.6575,32071,0.5007,-10.0357,-1.7236,0,0.0533,-0.081,32357,0.1541,9.5374,-1.933,0.0224,0.0426,0.0107
33664,-9.5037,1.8488,3.2642,-0.7468,0.343,-0.1726,1.7808,1.6583,32072,0.5537,-9.9996,-1.7549,0.0032,0.0565,-0.0788,32358,0.1517,9.5278,-1.933,0.0224,0.0426,0.0149
33665,-9.5302,1.8367,3.2738,-0.7531,0.3515,-0.1736,1.7808,1.6575,32073,0.5657,-9.9515,-1.7934,0.0117,0.0607,-0.0756,32359,0.1492,9.5182,-1.9282,0.0224,0.0341,0.016
33666,-9.5904,1.8247,3.269,-0.7606,0.3569,-0.1726,1.78,1.6575,32074,0.5705,-9.9081,-1.7765,0.0138,0.0607,-0.0692,32360,0.1637,9.4869,-1.933,0.0245,0.0309,0.0181
33667,-9.6771,1.7645,3.2835,-0.7713,0.3739,-0.1758,1.7808,1.6575,32076,0.5801,-9.8889,-1.7452,0.0117,0.0597,-0.0607,32362,0.1541,9.458,-1.9186,0.0245,0.0309,0.0245
33668,-9.7733,1.7043,3.322,-0.7691,0.3867,-0.1822,1.78,1.6575,32078,0.5874,-9.9106,-1.7332,0.0075,0.0629,-0.0586,32364,0.195,9.4724,-1.9186,0.0298,0.0309,0.0309
33669,-9.8094,1.5767,3.4159,-0.7531,0.3867,-0.1864,1.7808,1.6575,32081,0.5753,-9.9755,-1.7212,0.0085,0.0607,-0.0543,32367,0.1878,9.5254,-1.9402,0.0352,0.0373,0.0383
33670,-9.7565,1.5575,3.4375,-0.7468,0.3846,-0.1864,1.78,1.6575,32082,0.5922,-9.99,-1.7139,0.0096,0.0618,-0.0543,32367,0.1878,9.5254,-1.9402,0.0352,0.0373,0.0383
33671,-9.7565,1.5575,3.4375,-0.7468,0.3846,-0.1864,1.78,1.6575,32082,0.5922,-9.99,-1.7139,0.0096,0.0618,-0.0543,32367,0.1878,9.5254,-1.9402,0.0352,0.0373,0.0383
33672,-9.7565,1.5575,3.4375,-0.7468,0.3846,-0.1864,1.78,1.6575,32082,0.5922,-9.99,-1.7139,0.0096,0.0618,-0.0543,32367,0.1878,9.5254,-1.9402,0.0352,0.0373,0.0383
33673,-9.7565,1.5575,3.4375,-0.7468,0.3846,-0.1864,1.78,1.6575,32082,0.5922,-9.99,-1.7139,0.0096,0.0618,-0.0543,32368,0.1541,9.5374,-1.9426,0.0352,0.0362,0.0405
33674,-9.6674,1.5334,3.4664,-0.7372,0.3824,-0.1864,1.78,1.6575,32083,0.5994,-10.0117,-1.6899,0.0096,0.0607,-0.0554,32369,0.1011,9.5447,-1.945,0.0362,0.032,0.0437
33675,-9.6385,1.5117,3.5218,-0.7297,0.3824,-0.1832,1.78,1.6567,32084,0.6042,-10.0189,-1.6441,0.0096,0.0597,-0.0533,32370,0.0867,9.5398,-1.9643,0.0352,0.0234,0.0458
33676,-9.588,1.466,3.5314,-0.7222,0.3814,-0.1822,1.7808,1.6575,32085,0.5994,-10.0044,-1.6321,0.0085,0.0618,-0.0543,32371,0.077,9.5206,-1.9811,0.0362,0.0213,0.0479
33677,-9.588,1.466,3.5314,-0.7222,0.3814,-0.1822,1.7808,1.6575,32086,0.6066,-10.002,-1.6441,0.0085,0.0607,-0.0533,32372,0.0481,9.5182,-1.9474,0.0352,0.0117,0.0501
33678,-9.5832,1.4034,3.5338,-0.7031,0.3846,-0.1832,1.78,1.6575,32087,0.6211,-9.9924,-1.6634,0.0064,0.0607,-0.0533,32372,0.0481,9.5182,-1.9474,0.0352,0.0117,0.0501
33679,-9.6674,1.3697,3.5603,-0.6732,0.3856,-0.1949,1.7808,1.6575,32089,0.585,-9.9755,-1.6778,0.0021,0.0692,-0.0511,32375,0.2431,9.4171,-2.0365,0.0394,-0.0224,0.0597
33680,-9.6674,1.3697,3.5603,-0.6732,0.3856,-0.1949,1.7808,1.6575,32089,0.585,-9.9755,-1.6778,0.0021,0.0692,-0.0511,32375,0.2431,9.4171,-2.0365,0.0394,-0.0224,0.0597
33681,-9.6674,1.3697,3.5603,-0.6732,0.3856,-0.1949,1.78,1.6575,32089,0.585,-9.9755,-1.6778,0.0021,0.0692,-0.0511,32375,0.2431,9.4171,-2.0365,0.0394,-0.0224,0.0597
33682,-9.6674,1.3697,3.5603,-0.6732,0.3856,-0.1949,1.78,1.6575,32089,0.585,-9.9755,-1.6778,0.0021,0.0692,-0.0511,32375,0.2431,9.4171,-2.0365,0.0394,-0.0224,0.0597
33683,-9.7035,1.3673,3.5507,-0.6541,0.3856,-0.2013,1.7808,1.6575,32090,0.5705,-9.9659,-1.6754,0.0021,0.0714,-0.049,32376,0.2792,9.4508,-2.0702,0.0394,-0.0192,0.0597
33684,-9.7733,1.3432,3.5627,-0.6402,0.3878,-0.2131,1.78,1.6575,32091,0.585,-9.9683,-1.6971,0.0021,0.0724,-0.0479,32377,0.272,9.4484,-2.0413,0.0352,-0.0138,0.0597
33685,-9.8287,1.3168,3.5555,-0.6157,0.3867,-0.2205,1.7808,1.6575,32092,0.6066,-9.9635,-1.7115,0.0021,0.0756,-0.0469,32378,0.2624,9.4098,-2.0245,0.0362,-0.0107,0.0597
33686,-9.8961,1.2903,3.5603,-0.5965,0.3867,-0.2322,1.78,1.6575,32093,0.6042,-9.9755,-1.6923,0.0053,0.0746,-0.0447,32379,0.2576,9.4219,-1.9763,0.0415,-0.0064,0.0607
33687,-9.9563,1.2518,3.5699,-0.5646,0.3835,-0.2407,1.78,1.6575,32094,0.6211,-9.9804,-1.7091,0.0064,0.0746,-0.0426,32380,0.2287,9.47,-1.9426,0.0426,-0.0043,0.065
33688,-9.9876,1.2205,3.6012,-0.5273,0.3782,-0.2535,1.78,1.6575,32095,0.6403,-9.9852,-1.6827,0.0075,0.0778,-0.0426,32381,0.1926,9.4797,-1.933,0.0437,-0.0117,0.0682
33689,-10.0165,1.1771,3.6132,-0.4996,0.3728,-0.2642,1.78,1.6567,32096,0.6283,-10.0117,-1.6947,0.0064,0.0842,-0.0383,32382,0.195,9.47,-1.9137,0.0426,-0.0256,0.0703
33690,-10.0117,1.1458,3.6229,-0.4549,0.3622,-0.2695,1.78,1.6575,32097,0.6042,-10.0261,-1.6995,0.0085,0.0831,-0.0362,32383,0.8522,9.4773,-1.9306,0.0437,-0.0298,0.0724
33691,-10.0117,1.1458,3.6229,-0.4549,0.3622,-0.2695,1.78,1.6575,32098,0.6259,-10.0429,-1.6923,0.0128,0.0746,-0.032,32384,0.2696,9.4941,-1.9402,0.0458,-0.032,0.0746
33692,-9.9755,1.1145,3.6132,-0.424,0.3526,-0.2759,1.78,1.6575,32098,0.6259,-10.0429,-1.6923,0.0128,0.0746,-0.032,32384,0.2696,9.4941,-1.9402,0.0458,-0.032,0.0746
33693,-9.8431,1.0905,3.5795,-0.3451,0.3302,-0.278,1.78,1.6575,32100,0.6788,-10.0381,-1.7019,0.017,0.0714,-0.0245,32386,0.2648,9.5374,-1.9258,0.0458,-0.0373,0.0778
33694,-9.8431,1.0905,3.5795,-0.3451,0.3302,-0.278,1.78,1.6575,32100,0.6788,-10.0381,-1.7019,0.017,0.0714,-0.0245,32386,0.2648,9.5374,-1.9258,0.0458,-0.0373,0.0778
33695,-9.7854,1.1097,3.4953,-0.2961,0.3196,-0.277,1.7808,1.6575,32101,0.6764,-10.0454,-1.673,0.0192,0.0692,-0.0192,32387,0.26,9.535,-1.9234,0.0447,-0.0447,0.0788
33696,-9.7108,1.1266,3.4688,-0.2631,0.3164,-0.2716,1.78,1.6575,32102,0.6764,-10.0526,-1.673,0.0245,0.0618,-0.0149,32388,0.2696,9.5182,-1.921,0.0437,-0.0533,0.081
33697,-9.6867,1.1266,3.4183,-0.2152,0.3153,-0.2663,1.78,1.6575,32103,0.7077,-10.0285,-1.6634,0.0277,0.0522,-0.0075,32389,0.3033,9.4797,-1.9547,0.0426,-0.0522,0.0788
33698,-9.6602,1.1434,3.3942,-0.1843,0.3164,-0.2567,1.78,1.6575,32104,0.727,-10.0213,-1.6658,0.0309,0.0501,-0.0021,32390,0.3202,9.458,-1.9739,0.0426,-0.0501,0.082
33699,-9.6385,1.1507,3.4207,-0.1395,0.3164,-0.2514,1.78,1.6575,32105,0.7462,-9.9996,-1.6754,0.032,0.0458,0.0064,32391,0.3683,9.4556,-1.986,0.0415,-0.0469,0.081
33700,-9.6241,1.1771,3.4423,-0.1044,0.3164,-0.2407,1.7808,1.6575,32106,0.7535,-9.9491,-1.6995,0.032,0.0469,0.0107,32392,0.3876,9.47,-1.9956,0.0415,-0.0394,0.081
33701,-9.5832,1.2253,3.4977,-0.0863,0.3153,-0.2333,1.7792,1.6567,32107,0.7342,-9.9202,-1.7164,0.033,0.0511,0.017,32393,0.39,9.4821,-1.9884,0.0426,-0.0309,0.0788
33702,-9.5567,1.2397,3.5073,-0.0671,0.3132,-0.2205,1.78,1.6575,32108,0.7053,-9.8985,-1.7789,0.032,0.0533,0.0213,32394,0.3683,9.4797,-1.9787,0.0394,-0.0266,0.0778
33703,-9.5061,1.2879,3.5049,-0.0586,0.3153,-0.2099,1.7808,1.6575,32109,0.7053,-9.8793,-1.7838,0.032,0.0554,0.0256,32395,0.3683,9.4628,-1.9836,0.0362,-0.0234,0.0778
33704,-9.5061,1.2879,3.5049,-0.0586,0.3153,-0.2099,1.78,1.6575,32110,0.6788,-9.8889,-1.7886,0.033,0.0607,0.0309,32396,0.3779,9.4484,-2.0245,0.0352,-0.0181,0.0778
33705,-9.5013,1.3505,3.517,-0.0586,0.3196,-0.196,1.78,1.6575,32111,0.6524,-9.9057,-1.7621,0.0383,0.0629,0.033,32397,0.3635,9.4484,-2.0534,0.0352,-0.017,0.0756
33706,-9.523,1.4034,3.5146,-0.0692,0.3228,-0.1928,1.7808,1.6575,32112,0.6379,-9.9226,-1.7765,0.0426,0.0639,0.0362,32398,0.3707,9.4435,-2.0895,0.0352,-0.017,0.0735
33707,-9.5591,1.4395,3.5121,-0.0831,0.326,-0.1939,1.78,1.6583,32113,0.6283,-9.9443,-1.7549,0.0426,0.0714,0.0362,32399,0.3755,9.4411,-2.1087,0.0341,-0.0107,0.0724
33708,-9.6409,1.4612,3.4905,-0.114,0.3281,-0.196,1.78,1.6575,32114,0.5633,-9.9876,-1.7284,0.0437,0.0714,0.0341,32400,0.3659,9.4628,-2.1063,0.0341,-0.0064,0.0692
33709,-9.6987,1.4588,3.5001,-0.1502,0.327,-0.1992,1.7808,1.6575,32115,0.5561,-9.9996,-1.7091,0.0458,0.066,0.0341,32401,0.3611,9.4676,-2.0654,0.033,-0.0096,0.0671
33710,-9.6987,1.4588,3.5001,-0.1502,0.327,-0.1992,1.78,1.6575,32116,0.5753,-10.0117,-1.726,0.0501,0.0671,0.0341,32401,0.3611,9.4676,-2.0654,0.033,-0.0096,0.0671
33711,-9.7396,1.4251,3.5555,-0.1736,0.326,-0.2035,1.78,1.6575,32116,0.5753,-10.0117,-1.726,0.0501,0.0671,0.0341,32402,0.3611,9.4821,-2.0726,0.032,-0.0138,0.0629
33712,-9.7685,1.3793,3.5964,-0.2067,0.3185,-0.2088,1.78,1.6575,32117,0.5729,-10.0333,-1.6899,0.0511,0.0671,0.0341,32403,0.3466,9.4869,-2.0413,0.033,-0.0181,0.0597
33713,-9.7902,1.3216,3.6301,-0.2269,0.3121,-0.2131,1.78,1.6575,32118,0.5705,-10.0285,-1.6682,0.0543,0.0618,0.033,32404,0.3394,9.4869,-2.0221,0.0341,-0.0256,0.0554
33714,-9.7998,1.2806,3.6469,-0.2557,0.3036,-0.2162,1.78,1.6567,32119,0.5729,-10.0141,-1.6586,0.0554,0.0597,0.033,32405,0.3322,9.5037,-2.0004,0.0362,-0.0298,0.0554
33715,-9.7974,1.2445,3.6445,-0.2716,0.2961,-0.2248,1.78,1.6575,32120,0.5801,-10.0141,-1.6369,0.0565,0.0607,0.0309,32406,0.3226,9.4989,-1.9836,0.0383,-0.0383,0.0543
33716,-9.7733,1.206,3.6566,-0.2919,0.2844,-0.229,1.7808,1.6575,32121,0.5633,-10.002,-1.6297,0.0575,0.0618,0.0298,32407,0.3346,9.5254,-1.9619,0.0394,-0.0447,0.0543
33717,-9.6915,1.1651,3.6686,-0.3015,0.2727,-0.2344,1.7808,1.6567,32122,0.5392,-10.0117,-1.6128,0.0586,0.0629,0.0277,32408,0.3394,9.5302,-1.9523,0.0415,-0.0501,0.0533
33718,-9.6361,1.1314,3.6758,-0.3079,0.2663,-0.2376,1.7808,1.6575,32123,0.5609,-10.0044,-1.6201,0.0586,0.0607,0.0234,32409,0.3274,9.5447,-1.921,0.0426,-0.0543,0.0543
33719,-9.5928,1.1121,3.6831,-0.3111,0.2578,-0.2407,1.78,1.6575,32124,0.5874,-9.9804,-1.6514,0.0575,0.0639,0.0224,32410,0.3178,9.5567,-1.9113,0.0458,-0.0575,0.0543
33720,-9.5856,1.0929,3.7095,-0.3164,0.2525,-0.2429,1.78,1.6575,32125,0.5825,-9.9804,-1.673,0.0586,0.0639,0.0202,32411,0.272,9.5519,-1.8752,0.0458,-0.0607,0.0565
33721,-9.5904,1.0592,3.7312,-0.3174,0.2429,-0.2493,1.78,1.6575,32126,0.5585,-9.9876,-1.6682,0.0607,0.0629,0.0192,32412,0.2696,9.5447,-1.8993,0.0469,-0.0703,0.0575
33722,-9.5735,1.0207,3.7601,-0.3153,0.2354,-0.2525,1.7808,1.6583,32127,0.5729,-9.9755,-1.6802,0.0618,0.0586,0.0202,32413,0.3105,9.5134,-1.9137,0.049,-0.0756,0.0597
33723,-9.5687,0.999,3.7986,-0.3068,0.2216,-0.2557,1.7808,1.6575,32128,0.5874,-9.9659,-1.6778,0.0639,0.0575,0.0224,32414,0.3322,9.5134,-1.9595,0.0543,-0.0746,0.0607
33724,-9.5784,0.9581,3.8106,-0.2993,0.2131,-0.2567,1.7808,1.6575,32129,0.6018,-9.9539,-1.6995,0.066,0.0543,0.0266,32415,0.3587,9.5037,-1.9787,0.0565,-0.0778,0.0618
33725,-9.5856,0.9436,3.8371,-0.2834,0.1971,-0.261,1.7808,1.6575,32130,0.5874,-9.9539,-1.6682,0.0671,0.0543,0.0288,32416,0.4116,9.5085,-1.998,0.0575,-0.081,0.0629
33726,-9.588,0.8883,3.8467,-0.2695,0.1854,-0.2621,1.7808,1.6575,32131,0.5753,-9.9539,-1.6562,0.0692,0.0458,0.0309,32417,0.4453,9.5037,-2.0197,0.0575,-0.0767,0.0607
33727,-9.5567,0.8449,3.8299,-0.2418,0.1672,-0.2621,1.78,1.6567,32132,0.5729,-9.937,-1.6393,0.0703,0.0373,0.0341,32418,0.4646,9.4797,-2.0173,0.0575,-0.0714,0.0597
33728,-9.5447,0.8136,3.8082,-0.2184,0.1491,-0.2631,1.78,1.6575,32133,0.5753,-9.9443,-1.6104,0.0714,0.0309,0.0362,32418,0.4646,9.4797,-2.0173,0.0575,-0.0714,0.0597
33729,-9.5447,0.8136,3.8082,-0.2184,0.1491,-0.2631,1.78,1.6575,32133,0.5753,-9.9443,-1.6104,0.0714,0.0309,0.0362,32419,0.4598,9.47,-2.0582,0.0575,-0.0671,0.0554
33730,-9.4917,0.7944,3.7938,-0.1747,0.1374,-0.2589,1.7808,1.6575,32134,0.5922,-9.9515,-1.5888,0.0714,0.0213,0.0394,32420,0.4526,9.4773,-2.0871,0.0554,-0.066,0.0511
33731,-9.4652,0.7751,3.7842,-0.1278,0.1182,-0.2525,1.78,1.6575,32135,0.597,-9.9659,-1.584,0.0692,0.0192,0.0415,32421,0.4646,9.4556,-2.1208,0.0522,-0.065,0.049
33732,-9.4123,0.7703,3.7673,-0.0969,0.1076,-0.2503,1.78,1.6567,32136,0.6018,-9.9731,-1.5719,0.0692,0.0149,0.0458,32422,0.4911,9.4508,-2.14,0.049,-0.0618,0.0447
33733,-9.3906,0.7679,3.7505,-0.0447,0.0916,-0.2407,1.78,1.6575,32137,0.5994,-9.9852,-1.5575,0.066,0.0117,0.0469,32423,0.5055,9.4267,-2.1521,0.0447,-0.0607,0.0405
33734,-9.3737,0.7848,3.7529,-0.0107,0.082,-0.2344,1.7808,1.6583,32138,0.5994,-9.9755,-1.5888,0.065,0.0107,0.0501,32424,0.5464,9.4098,-2.1737,0.0437,-0.0565,0.0373
33735,-9.3737,0.7848,3.7529,-0.0107,0.082,-0.2344,1.78,1.6567,32139,0.5561,-9.9683,-1.5671,0.0639,0.0107,0.0511,32425,0.5585,9.3882,-2.1906,0.0426,-0.0501,0.033
33736,-9.3858,0.8088,3.7818,0.0692,0.0597,-0.2045,1.78,1.6567,32140,0.5657,-9.9611,-1.5575,0.0618,0.0096,0.0511,32426,0.5705,9.393,-2.2002,0.0394,-0.0394,0.0277
33737,-9.4098,0.8329,3.7793,0.1108,0.0469,-0.1939,1.78,1.6567,32141,0.5224,-9.9394,-1.5695,0.0607,0.0085,0.0511,32427,0.5681,9.3906,-2.1834,0.0373,-0.0352,0.0245
33738,-9.4363,0.8498,3.7625,0.1364,0.0383,-0.179,1.7808,1.6575,32142,0.5248,-9.9226,-1.5719,0.0586,0,0.0511,32428,0.5801,9.4002,-2.1834,0.0352,-0.0266,0.0192
33739,-9.4604,0.8883,3.7071,0.1694,0.0245,-0.1704,1.78,1.6567,32143,0.5103,-9.937,-1.5695,0.0543,-0.0043,0.0501,32429,0.585,9.4195,-2.1761,0.032,-0.0202,0.0149
33740,-9.4604,0.8883,3.7071,0.1694,0.0245,-0.1566,1.78,1.6575,32144,0.4959,-9.9443,-1.5767,0.0501,-0.0107,0.0479,32429,0.585,9.4195,-2.1761,0.032,-0.0202,0.0149
33741,-9.4869,0.9292,3.671,0.2077,0.0096,-0.1502,1.7808,1.6575,32145,0.5031,-9.9467,-1.596,0.0479,-0.0107,0.0447,32431,0.5753,9.4532,-2.1617,0.0256,-0.0021,0.0021
33742,-9.4869,0.9484,3.6518,0.2237,0.0011,-0.1406,1.78,1.6575,32146,0.4911,-9.9539,-1.596,0.0479,-0.0149,0.0426,32432,0.5585,9.4628,-2.1545,0.0202,0.0053,-0.0021
33743,-9.4893,0.9629,3.6494,0.229,-0.0043,-0.1395,1.7808,1.6575,32147,0.4935,-9.9731,-1.5791,0.0458,-0.0202,0.0383,32433,0.5561,9.4821,-2.1328,0.0181,0.0107,-0.0096
33744,-9.4845,0.946,3.6253,0.2312,-0.0096,-0.1385,1.78,1.6575,32148,0.4887,-9.9828,-1.5647,0.0469,-0.0256,0.0373,32434,0.532,9.5013,-2.1352,0.0138,0.0117,-0.016
33745,-9.47,0.922,3.6469,0.2301,-0.0128,-0.1395,1.7808,1.6575,32149,0.4718,-10.0141,-1.5647,0.0447,-0.0277,0.033,32435,0.52,9.5134,-2.1328,0.0107,0.0107,-0.0234
33746,-9.4411,0.881,3.6662,0.2226,-0.0181,-0.1449,1.7808,1.6575,32150,0.4694,-10.0237,-1.5551,0.0458,-0.0352,0.0309,32436,0.5079,9.5302,-2.1376,0.0064,0.0096,-0.0288
33747,-9.3882,0.8522,3.6879,0.2162,-0.0224,-0.1502,1.7808,1.6575,32151,0.467,-10.0213,-1.5382,0.0479,-0.0394,0.0277,32436,0.5079,9.5302,-2.1376,0.0064,0.0096,-0.0288
33748,-9.3882,0.8522,3.6879,0.2162,-0.0224,-0.1502,1.78,1.6575,32151,0.467,-10.0213,-1.5382,0.0479,-0.0394,0.0277,32437,0.5103,9.5278,-2.1304,0.0021,0.0096,-0.0373
33749,-9.3882,0.8522,3.7168,0.2067,-0.0298,-0.1545,1.7792,1.6567,32152,0.4935,-10.0117,-1.531,0.0469,-0.0383,0.0234,32438,0.5055,9.5398,-2.1545,0.0011,0.0107,-0.0426
33750,-9.2558,0.7992,3.7168,0.2003,-0.0383,-0.1609,1.7808,1.6575,32153,0.4839,-9.9948,-1.5093,0.0437,-0.0362,0.0202,32439,0.4887,9.5206,-2.1328,-0.0021,0.0128,-0.049
33751,-9.2197,0.7294,3.7192,0.1907,-0.0437,-0.163,1.7808,1.6575,32154,0.467,-9.9948,-1.4973,0.0426,-0.0373,0.0149,32440,0.4429,9.5037,-2.0871,-0.0053,0.0107,-0.0543
33752,-9.2028,0.6692,3.7312,0.1907,-0.0522,-0.1704,1.7808,1.6575,32155,0.5079,-9.9587,-1.5117,0.0405,-0.033,0.0128,32441,0.4261,9.4917,-2.1208,-0.0075,0.0138,-0.0565
33753,-9.1667,0.5922,3.7264,0.1971,-0.0586,-0.1747,1.78,1.6575,32156,0.5272,-9.9418,-1.5045,0.0362,-0.0245,0.0096,32442,0.3924,9.4941,-2.1135,-0.0064,0.0202,-0.0575
33754,-9.1475,0.5272,3.7071,0.2141,-0.0692,-0.1811,1.78,1.6575,32157,0.5368,-9.9322,-1.478,0.032,-0.0192,0.0064,32443,0.3539,9.4869,-2.0558,-0.0096,0.0192,-0.0575
33755,-9.0969,0.4502,3.6566,0.2312,-0.0767,-0.1864,1.7808,1.6575,32158,0.5392,-9.9274,-1.4443,0.0266,-0.0138,0.0021,32444,0.3515,9.4773,-2.0534,-0.0107,0.0128,-0.0565
33756,-9.0536,0.3659,3.5771,0.2898,-0.0937,-0.2035,1.78,1.6575,32160,0.5272,-9.937,-1.4106,0.0128,-0.0011,-0.0043,32445,0.39,9.4628,-2.0606,-0.0096,0.016,-0.0554
33757,-9.1138,0.2889,3.4857,0.3707,-0.1065,-0.2194,1.78,1.6575,32162,0.4766,-9.9539,-1.4154,0,0.0053,-0.0128,32448,0.3129,9.4797,-2.0534,-0.0128,0.0352,-0.0522
33758,-9.1619,0.2431,3.4255,0.4272,-0.1108,-0.2269,1.7808,1.6575,32163,0.4598,-9.9683,-1.4106,-0.0021,0.0117,-0.0181,32449,0.2841,9.4604,-2.0437,-0.0138,0.033,-0.0511
33759,-9.1619,0.2431,3.4255,0.4272,-0.1108,-0.2269,1.7808,1.6575,32163,0.4598,-9.9683,-1.4106,-0.0021,0.0117,-0.0181,32449,0.2841,9.4604,-2.0437,-0.0138,0.033,-0.0511
33760,-9.1619,0.2431,3.4255,0.4272,-0.1108,-0.2269,1.78,1.6575,32163,0.4598,-9.9683,-1.4106,-0.0021,0.0117,-0.0181,32449,0.2841,9.4604,-2.0437,-0.0138,0.033,-0.0511
33761,-9.7782,0.2167,3.3942,0.4698,-0.1193,-0.2376,1.7808,1.6575,32164,0.4477,-9.9755,-1.4082,-0.0075,0.016,-0.0213,32449,0.2841,9.4604,-2.0437,-0.0138,0.033,-0.0511
33762,-9.3449,0.1685,3.3436,0.5358,-0.1257,-0.2439,1.7808,1.6575,32165,0.4526,-9.9683,-1.4203,-0.0117,0.016,-0.0277,32451,0.3515,9.4363,-2.0798,-0.0149,0.0394,-0.0447
33763,-9.381,0.1396,3.322,0.6083,-0.1374,-0.2567,1.78,1.6575,32166,0.5079,-9.9394,-1.4612,-0.016,0.017,-0.0288,32452,0.3081,9.4315,-2.0847,-0.016,0.0501,-0.0426
33764,-9.4098,0.0987,3.2762,0.6594,-0.147,-0.2642,1.7808,1.6575,32167,0.5344,-9.9106,-1.4949,-0.0224,0.0245,-0.032,32453,0.272,9.4171,-2.0702,-0.0181,0.049,-0.0373
33765,-9.4219,0.0626,3.1992,0.7436,-0.163,-0.2727,1.78,1.6575,32168,0.5392,-9.8817,-1.5166,-0.0266,0.0277,-0.0341,32454,0.2768,9.3978,-2.0702,-0.0202,0.0458,-0.0341
33766,-9.4074,0,3.1438,0.8043,-0.1726,-0.278,1.78,1.6575,32169,0.5416,-9.8744,-1.5214,-0.032,0.0298,-0.0352,32455,0.3057,9.3761,-2.0798,-0.0192,0.0458,-0.0298
33767,-9.4074,0,3.1438,0.8043,-0.1726,-0.278,1.78,1.6575,32169,0.5416,-9.8744,-1.5214,-0.032,0.0298,-0.0352,32455,0.3057,9.3761,-2.0798,-0.0192,0.0458,-0.0298
33768,-9.381,-0.053,3.0163,0.9065,-0.1864,-0.2887,1.78,1.6575,32170,0.5657,-9.8696,-1.5117,-0.0362,0.0277,-0.0362,32456,0.3033,9.393,-2.0726,-0.0149,0.049,-0.0266
33769,-9.316,-0.1228,2.9368,0.9822,-0.1949,-0.2983,1.7792,1.6567,32171,0.5681,-9.8889,-1.5382,-0.0437,0.0266,-0.0373,32457,0.2696,9.405,-2.075,-0.016,0.0511,-0.0202
33770,-9.316,-0.1228,2.9368,0.9822,-0.1949,-0.2983,1.78,1.6575,32172,0.585,-9.9226,-1.531,-0.049,0.0234,-0.0373,32458,0.2383,9.4219,-2.0702,-0.016,0.0479,-0.017
33771,-9.1908,-0.1661,2.7394,1.1931,-0.2162,-0.3068,1.78,1.6575,32173,0.5874,-9.9659,-1.5021,-0.0533,0.0213,-0.0373,32459,0.2167,9.4315,-2.063,-0.0138,0.0426,-0.0107
33772,-9.133,-0.1589,2.607,1.3337,-0.2226,-0.3079,1.78,1.6567,32174,0.6163,-9.9972,-1.4877,-0.0597,0.0181,-0.0373,32460,0.2022,9.4821,-2.0702,-0.0117,0.0362,-0.0075
33773,-9.0608,-0.1252,2.5276,1.4296,-0.2216,-0.3079,1.78,1.6575,32175,0.6596,-10.0574,-1.4756,-0.0629,0.0202,-0.0394,32461,0.2046,9.5398,-2.0798,-0.0096,0.0256,-0.0053
33774,-9.0873,-0.0313,2.4746,1.5713,-0.2152,-0.3079,1.7808,1.6575,32176,0.6548,-10.0863,-1.4732,-0.0682,0.0277,-0.0405,32462,0.1974,9.6096,-2.0798,-0.0096,0.0234,-0.0021
33775,-9.1908,0.0506,2.4048,1.7076,-0.1992,-0.3089,1.78,1.6575,32177,0.6403,-10.1007,-1.4636,-0.0692,0.0266,-0.0415,32462,0.1974,9.6096,-2.0798,-0.0096,0.0234,-0.0021
33776,-9.4098,0.195,2.3326,1.7907,-0.1886,-0.3089,1.78,1.6583,32178,0.6427,-10.0767,-1.4901,-0.0735,0.0288,-0.0415,32464,0.1926,9.6072,-2.0823,-0.0192,0.0053,0
33777,-9.535,0.3033,2.258,1.9068,-0.1726,-0.3121,1.78,1.6575,32179,0.6259,-10.0285,-1.4853,-0.0767,0.0309,-0.0405,32465,0.2191,9.4941,-2.0895,-0.0256,-0.0053,0
33778,-9.7613,0.4477,2.2339,1.9739,-0.1587,-0.3174,1.7808,1.6575,32180,0.6283,-9.9611,-1.5045,-0.082,0.0266,-0.0394,32466,0.2552,9.4026,-2.0895,-0.0298,-0.0149,0.0032
33779,-9.9202,0.5488,2.2363,2.0602,-0.1385,-0.3196,1.78,1.6567,32181,0.6403,-9.9178,-1.5262,-0.0863,0.0309,-0.0394,32467,0.2961,9.2847,-2.0991,-0.0309,-0.0202,0.0043
33780,-10.1055,0.7318,2.2508,2.105,-0.1289,-0.3206,1.78,1.6567,32182,0.6042,-9.8648,-1.5286,-0.0948,0.032,-0.0394,32468,0.3515,9.2365,-2.1256,-0.0277,-0.0234,0.0075
33781,-10.1561,0.9075,2.2339,2.154,-0.1182,-0.3174,1.78,1.6567,32183,0.5825,-9.8287,-1.5551,-0.1001,0.0298,-0.0352,32469,0.3755,9.2149,-2.1521,-0.0266,-0.0202,0.0096
33782,-10.1224,1.0255,2.2556,2.1731,-0.1097,-0.3111,1.7808,1.6575,32184,0.6211,-9.8119,-1.5888,-0.1065,0.032,-0.033,32469,0.3755,9.2149,-2.1521,-0.0266,-0.0202,0.0096
33783,-10.1224,1.0255,2.2556,2.1731,-0.1097,-0.3111,1.78,1.6575,32185,0.6475,-9.8335,-1.6225,-0.1108,0.0373,-0.032,32471,0.3611,9.2943,-2.1376,-0.0266,-0.016,0.016
33784,-9.9322,1.3192,2.2291,2.1593,-0.0852,-0.2919,1.7808,1.6575,32186,0.6692,-9.8769,-1.6441,-0.1129,0.0415,-0.0298,32471,0.3611,9.2943,-2.1376,-0.0266,-0.016,0.016
33785,-9.7902,1.4756,2.2291,2.1359,-0.0692,-0.2834,1.7808,1.6575,32187,0.6837,-9.9274,-1.6393,-0.1161,0.049,-0.0266,32473,0.3755,9.4508,-2.0678,-0.0277,-0.0138,0.0202
33786,-9.7902,1.4756,2.2291,2.1359,-0.0692,-0.2834,1.78,1.6575,32187,0.6837,-9.9274,-1.6393,-0.1161,0.049,-0.0266,32473,0.3755,9.4508,-2.0678,-0.0277,-0.0138,0.0202
33787,-9.7108,1.5791,2.2291,2.0815,-0.0426,-0.2716,1.7808,1.6575,32188,0.6837,-10.0165,-1.6201,-0.1161,0.0522,-0.0245,32474,0.3972,9.523,-2.0245,-0.0288,-0.0128,0.0202
33788,-9.6072,1.7332,2.2459,2.0315,-0.0192,-0.2653,1.7808,1.6567,32189,0.6957,-10.067,-1.6177,-0.1129,0.0543,-0.0202,32475,0.3972,9.6096,-2.0173,-0.0298,-0.0085,0.0202
33789,-9.5784,1.8295,2.258,1.9409,0.0192,-0.2589,1.78,1.6575,32190,0.7053,-10.1344,-1.6177,-0.1087,0.0554,-0.0149,32476,0.3731,9.6602,-1.986,-0.032,-0.0075,0.0192
33790,-9.6145,1.9667,2.2917,1.8706,0.0479,-0.2578,1.78,1.6567,32191,0.6837,-10.1585,-1.608,-0.1023,0.0543,-0.0117,32477,0.3731,9.6698,-1.9908,-0.033,-0.0107,0.017
33791,-9.6145,1.9667,2.2917,1.8706,0.0479,-0.2578,1.78,1.6575,32192,0.6668,-10.1537,-1.6104,-0.0991,0.0479,-0.0075,32478,0.3852,9.6698,-2.0173,-0.032,-0.0128,0.0138
33792,-9.9828,2.2483,2.4843,1.649,0.1438,-0.2748,1.78,1.6575,32193,0.6427,-10.1224,-1.6104,-0.0937,0.0415,-0.0053,32479,0.3924,9.6602,-2.0341,-0.0341,-0.0128,0.0107
33793,-10.1898,2.3832,2.5805,1.485,0.1715,-0.2855,1.7808,1.6575,32194,0.6451,-10.0839,-1.6514,-0.0916,0.033,0,32480,0.3972,9.6313,-2.0534,-0.0352,-0.0128,0.0064
33794,-10.5003,2.4241,2.6576,1.3657,0.2013,-0.2983,1.7808,1.6575,32195,0.6331,-10.0502,-1.6923,-0.0895,0.0266,0.0043,32481,0.3755,9.588,-2.0582,-0.0405,-0.017,0.0021
33795,-10.7362,2.3928,2.8189,1.1867,0.2131,-0.3068,1.78,1.6575,32196,0.6307,-10.0213,-1.7091,-0.0852,0.0149,0.0107,32481,0.3755,9.588,-2.0582,-0.0405,-0.017,0.0021
33796,-10.8397,2.2845,2.9224,1.0205,0.2173,-0.3153,1.78,1.6567,32197,0.6187,-9.9515,-1.7476,-0.081,0.0085,0.0181,32483,0.3515,9.381,-2.0919,-0.049,-0.0288,-0.0021
33797,-10.8758,2.0919,2.9729,0.9193,0.2141,-0.3174,1.7808,1.6575,32198,0.6211,-9.9202,-1.8247,-0.0778,-0.0053,0.0245,32484,0.3515,9.2678,-2.1256,-0.0479,-0.0309,-0.0021
33798,-10.8277,1.9571,3.0211,0.784,0.1992,-0.3206,1.78,1.6575,32199,0.6066,-9.8913,-1.8536,-0.0756,-0.2866,0.0309,32485,0.3587,9.251,-2.1978,-0.0437,-0.0341,-0.0011
33799,-10.6688,1.7308,3.0403,0.7127,0.1832,-0.3217,1.7808,1.6575,32200,0.6018,-9.8889,-1.8367,-0.0714,-0.0266,0.0373,32486,0.3683,9.2967,-2.205,-0.0426,-0.0383,0.0021
33800,-10.5124,1.6032,3.0259,0.6296,0.163,-0.3206,1.7808,1.6575,32201,0.609,-9.9009,-1.8536,-0.0671,-0.0394,0.0458,32487,0.3659,9.3665,-2.1689,-0.0458,-0.0426,0.0032
33801,-10.197,1.4419,3.0138,0.5891,0.1491,-0.3153,1.7808,1.6575,32202,0.6066,-9.9731,-1.8632,-0.0607,-0.0501,0.0511,32488,0.3683,9.4219,-2.1472,-0.049,-0.0469,0.0032
33802,-9.978,1.3095,2.9272,0.5529,0.1374,-0.31,1.7808,1.6575,32203,0.609,-10.0141,-1.8584,-0.0479,-0.0671,0.0586,32489,0.3587,9.4893,-2.0654,-0.0511,-0.0479,0.0032
33803,-9.6554,1.2325,2.8959,0.5401,0.1332,-0.3004,1.78,1.6575,32204,0.5729,-10.0935,-1.8512,-0.0383,-0.082,0.0629,32490,0.3298,9.5471,-2.0293,-0.0533,-0.0533,0.0043
33804,-9.405,1.1073,2.8935,0.5444,0.1342,-0.2929,1.78,1.6575,32205,0.5801,-10.1465,-1.8343,-0.0192,-0.1236,0.0703,32491,0.3418,9.6072,-1.9595,-0.0533,-0.0575,0.0043
33805,-9.405,1.1073,2.8935,0.5444,0.1342,-0.2929,1.78,1.6575,32205,0.5801,-10.1465,-1.8343,-0.0192,-0.1236,0.0703,32491,0.3418,9.6072,-1.9595,-0.0533,-0.0575,0.0043
33806,-9.2726,1.0471,2.9079,0.5603,0.1449,-0.2844,1.78,1.6575,32206,0.6644,-10.1802,-1.7693,-0.0053,-0.1395,0.0756,32492,0.3587,9.6193,-1.9258,-0.0522,-0.0586,0.0043
33807,-9.2462,0.9364,2.932,0.5997,0.1598,-0.2812,1.78,1.6575,32207,0.7005,-10.1585,-1.6827,0.0043,-0.1395,0.0799,32493,0.3635,9.653,-1.8897,-0.0511,-0.0586,0.0032
33808,-9.34,0.8907,2.9705,0.6573,0.1886,-0.2834,1.7808,1.6575,32208,0.7198,-10.1152,-1.6682,0.0064,-0.1374,0.0874,32494,0.3779,9.6698,-1.8608,-0.0533,-0.0629,0.0032
33809,-9.5759,0.9075,3.0475,0.6977,0.2045,-0.2887,1.7808,1.6575,32209,0.7174,-10.0839,-1.6634,0.0085,-0.13,0.0916,32495,0.4213,9.6313,-1.8319,-0.0565,-0.0629,0.0011
33810,-9.7709,0.9436,3.0933,0.7553,0.2226,-0.2972,1.7808,1.6583,32210,0.7029,-10.0189,-1.6658,0.0075,-0.1182,0.0969,32496,0.4165,9.5784,-1.8078,-0.0586,-0.0639,0
33811,-10.0694,0.9821,3.115,0.7872,0.2333,-0.31,1.78,1.6567,32211,0.6909,-10.0165,-1.6875,0.0064,-0.114,0.1001,32497,0.4429,9.5206,-1.8199,-0.0597,-0.065,-0.0021
33812,-10.2163,0.9942,3.1583,0.8298,0.2407,-0.3206,1.78,1.6567,32212,0.6451,-10.0213,-1.7067,0.2802,-0.1097,0.1055,32498,0.4429,9.4387,-1.8536,-0.0554,-0.0639,-0.0043
33813,-10.3342,1.0375,3.1679,0.8522,0.2418,-0.3345,1.7808,1.6575,32213,0.6066,-10.0309,-1.7212,0.0117,-0.1065,0.1087,32499,0.414,9.405,-1.9017,-0.049,-0.0767,-0.0053
33814,-10.327,1.1242,3.1535,0.8735,0.2407,-0.343,1.7808,1.6575,32214,0.5825,-10.0285,-1.7452,0.017,-0.1001,0.1108,32500,0.4526,9.3641,-1.9619,-0.0469,-0.081,-0.0053
33815,-10.2427,1.1771,3.1438,0.8799,0.2397,-0.3537,1.78,1.6575,32215,0.5296,-9.9876,-1.7765,0.0224,-0.0959,0.1129,32501,0.4694,9.3497,-1.9836,-0.0458,-0.0735,-0.0053
33816,-10.1104,1.2566,3.0981,0.881,0.2407,-0.3601,1.7808,1.6575,32216,0.5176,-9.9539,-1.7838,0.0277,-0.0874,0.115,32502,0.3755,9.3256,-2.0702,-0.0426,-0.0586,-0.0053
33817,-10.0117,1.2951,3.074,0.8693,0.2493,-0.3665,1.7808,1.6575,32217,0.4935,-9.9322,-1.7838,0.0277,-0.081,0.114,32503,0.2407,9.3424,-2.0317,-0.0426,-0.0405,-0.0043
33818,-9.8094,1.3962,3.062,0.8554,0.2557,-0.3718,1.7808,1.6575,32218,0.4911,-9.9346,-1.8006,0.0288,-0.0746,0.114,32504,0.0915,9.3569,-1.9836,-0.0426,-0.0394,0
33819,-9.8094,1.3962,3.062,0.8554,0.2557,-0.3718,1.7808,1.6575,32219,0.4839,-9.9804,-1.7886,0.0298,-0.0671,0.114,32505,0.0963,9.3665,-1.9041,-0.0383,-0.0565,0.0021
33820,-9.47,1.6032,3.0885,0.8011,0.2802,-0.3846,1.7808,1.6575,32220,0.4814,-10.0044,-1.7741,0.0362,-0.066,0.115,32506,0.2816,9.3978,-1.8945,-0.0298,-0.0565,0.0053
33821,-9.3521,1.6851,3.1101,0.7542,0.2993,-0.3931,1.7792,1.6567,32221,0.5103,-10.0213,-1.7476,0.0405,-0.0565,0.1193,32507,0.2816,9.4965,-1.9306,-0.0192,-0.0277,0.0064
33822,-9.2269,1.8006,3.1053,0.718,0.3228,-0.3995,1.78,1.6567,32222,0.4598,-10.0983,-1.6851,0.0479,-0.0565,0.1214,32508,0.3611,9.5928,-1.8776,-0.0181,0.0426,0.0085
33823,-9.2269,1.8006,3.1053,0.718,0.3228,-0.3995,1.7808,1.6575,32223,0.4165,-10.12,-1.6369,0.0586,-0.0682,0.1214,32509,0.1276,9.7156,-1.6441,-0.0309,0.0746,0.0096
33824,-9.1932,1.8728,3.1174,0.6551,0.3409,-0.4048,1.78,1.6575,32223,0.4165,-10.12,-1.6369,0.0586,-0.0682,0.1214,32509,0.1276,9.7156,-1.6441,-0.0309,0.0746,0.0096
33825,-9.2486,1.9089,3.1342,0.6093,0.3654,-0.4123,1.78,1.6575,32224,0.5224,-10.0502,-1.726,0.0703,-0.0724,0.1246,32510,0.0939,9.7228,-1.4829,-0.0426,0.0969,0.0117
33826,-9.3473,1.9595,3.1703,0.5348,0.3803,-0.4186,1.78,1.6575,32225,0.5416,-10.0068,-1.8175,0.0788,-0.0405,0.1278,32511,0.1276,9.6819,-1.3986,-0.0458,0.1182,0.0107
33827,-9.5134,1.9836,3.1824,0.4815,0.3963,-0.4282,1.78,1.6575,32226,0.4261,-9.9346,-1.7789,0.0842,-0.0149,0.13,32511,0.1276,9.6819,-1.3986,-0.0458,0.1182,0.0107
33828,-9.6578,2.0197,3.2161,0.3963,0.4016,-0.4357,1.78,1.6567,32227,0.3202,-9.937,-1.7549,0.0842,-0.0117,0.1257,32512,0.1348,9.6217,-1.3793,-0.0437,0.1438,0.0096
33829,-9.7348,2.0269,3.2522,0.3057,0.4059,-0.4474,1.78,1.6575,32228,0.414,-9.8119,-1.815,0.082,0.2557,0.1246,32514,0.3852,9.446,-1.5358,-0.033,0.1619,0.0064
33830,-9.8263,1.9908,3.2883,0.245,0.4048,-0.4506,1.7808,1.6575,32229,0.5633,-9.7252,-1.9017,0.0842,0.0075,0.1342,32515,0.5416,9.3882,-1.6104,-0.0234,0.1768,0
33831,-9.8672,1.9643,3.3244,0.1641,0.3995,-0.457,1.78,1.6575,32230,0.4574,-9.9443,-1.7212,0.0767,0.0682,0.1321,32516,0.6331,9.393,-1.7404,-0.0128,0.1886,-0.0075
33832,-9.8913,1.9041,3.3364,0.115,0.391,-0.4602,1.78,1.6575,32231,0.2624,-9.9948,-1.5406,0.0884,0.0597,0.1278,32517,0.8714,9.3906,-1.921,-0.0064,0.1981,-0.0213
33833,-9.8696,1.8488,3.3075,0.0554,0.3803,-0.4602,1.7808,1.6583,32232,0.3418,-9.9683,-1.5888,0.0937,0.0703,0.13,32518,1.0327,9.4339,-2.2508,0.0043,0.2322,-0.032
33834,-9.7902,1.7741,3.2835,0.0224,0.3739,-0.4591,1.78,1.6575,32233,0.3707,-10.0429,-1.6465,0.0969,0.0937,0.1321,32519,0.946,9.4724,-2.3904,0.0011,0.2653,-0.0469
33835,-9.742,1.7115,3.2112,-0.0107,0.3654,-0.4559,1.7808,1.6575,32234,0.3226,-10.0502,-1.6562,0.1012,0.1023,0.1268,32520,0.8762,9.4387,-2.4433,-0.017,0.2738,-0.0543
33836,-9.6891,1.6538,3.1511,-0.0234,0.3601,-0.4485,1.78,1.6575,32235,0.4405,-10.0141,-1.7332,0.0991,0.0937,0.13,32521,0.7992,9.3786,-2.4385,-0.0266,0.2791,-0.0639
33837,-9.6506,1.5984,3.0933,-0.0266,0.3569,-0.4431,1.78,1.6575,32236,0.5537,-10.0622,-1.726,0.1012,0.115,0.1353,32522,0.6861,9.3521,-2.335,-0.0256,0.2748,-0.0692
33838,-9.6217,1.5454,3.0403,-0.016,0.3558,-0.4336,1.78,1.6575,32237,0.3876,-10.2211,-1.6008,0.1065,0.1459,0.1385,32523,0.6451,9.3521,-2.2074,-0.0309,0.2535,-0.0778
33839,-9.6072,1.4949,2.9826,-0.0011,0.3558,-0.4272,1.7808,1.6575,32238,0.2118,-10.2307,-1.4829,0.1236,0.1577,0.1417,32524,0.609,9.3352,-2.1497,-0.0341,0.2439,-0.0863
33840,-9.6072,1.454,2.9585,0.0266,0.3601,-0.4165,1.78,1.6575,32239,0.1733,-10.1681,-1.5647,0.1353,0.1427,0.1491,32525,0.5248,9.3473,-2.0485,-0.0383,0.2493,-0.0905
33841,-9.6024,1.454,2.9344,0.0479,0.3643,-0.4027,1.7808,1.6567,32240,0.1131,-10.1609,-1.6514,0.1459,0.1204,0.1545,32526,0.3418,9.381,-1.9715,-0.0469,0.5305,-0.0969
33842,-9.6024,1.454,2.9344,0.0479,0.3643,-0.4027,1.78,1.6575,32240,0.1131,-10.1609,-1.6514,0.1459,0.1204,0.1545,32527,0.1829,9.4219,-1.7693,-0.0522,0.2653,-0.098
33843,-9.6289,1.4588,2.9561,0.081,0.3696,-0.3941,1.7808,1.6575,32241,0.4044,-10.067,-1.8175,0.1672,0.1087,0.1694,32527,0.1829,9.4219,-1.7693,-0.0522,0.2653,-0.098
33844,-9.6289,1.4877,2.9705,0.1012,0.3739,-0.3824,1.7808,1.6575,32241,0.4044,-10.067,-1.8175,0.1672,0.1087,0.1694,32528,0.0409,9.4315,-1.6658,-0.0565,0.2407,-0.0959
33845,-9.7108,1.5117,3.0066,0.13,0.3803,-0.376,1.7808,1.6575,32243,0.5633,-10.185,-1.8295,0.1896,0.1545,0.1917,32529,0.0193,9.4147,-1.5671,-0.0501,0.2301,-0.0916
33846,-9.7733,1.5406,3.0283,0.147,0.3878,-0.3643,1.7808,1.6575,32244,0.3996,-10.2163,-1.7717,0.1896,0.1406,0.1875,32530,0.0072,9.4267,-1.543,-0.0362,0.2226,-0.0884
33847,-9.7974,1.5551,3.0427,0.1704,0.3899,-0.3579,1.78,1.6575,32245,0.5224,-10.12,-1.9137,0.2045,0.1065,0.1939,32531,-0.0217,9.4821,-1.531,-0.0298,0.2226,-0.0863
33848,-9.8456,1.5719,3.0259,0.1854,0.3931,-0.3494,1.7808,1.6575,32246,0.7222,-9.99,-1.9691,0.2141,0.1214,0.2099,32532,-0.0217,9.523,-1.5334,-0.0277,0.2269,-0.081
33849,-9.8769,1.596,3.0066,0.2088,0.3952,-0.343,1.7808,1.6575,32247,0.6427,-9.9924,-1.7838,0.2237,0.1481,0.2152,32533,-0.0385,9.535,-1.4612,-0.0266,0.2258,-0.0767
33850,-9.8865,1.6201,2.985,0.228,0.3995,-0.3366,1.7808,1.6575,32248,0.4309,-9.978,-1.6345,0.2184,0.1449,0.2141,32534,-0.012,9.5278,-1.5262,-0.0181,0.2056,-0.0703
33851,-9.8865,1.6201,2.9464,0.2354,0.4016,-0.3334,1.7808,1.6575,32249,0.2889,-9.9418,-1.5527,0.2162,0.1268,0.2131,32535,0.1733,9.5061,-1.6056,-0.0085,0.196,-0.066
33852,-9.9009,1.6995,2.9152,0.2418,0.4059,-0.3292,1.7808,1.6575,32250,0.2287,-9.86,-1.5382,0.2226,0.1225,0.2194,32536,0.2263,9.5085,-1.7717,0.0053,0.2131,-0.065
33853,-9.9033,1.7428,2.8983,0.2407,0.4069,-0.3281,1.7808,1.6575,32251,0.1204,-9.7517,-1.4732,0.2312,0.1172,0.2269,32537,0.2455,9.4917,-1.8608,0.0075,0.2216,-0.0629
33854,-9.9057,1.7838,2.9007,0.2333,0.4091,-0.326,1.7808,1.6583,32252,-0.0794,-9.8913,-1.3432,0.2088,0.1097,0.2173,32538,0.3129,9.4363,-2.0028,0.0064,0.2194,-0.0618
33855,-9.9057,1.7838,2.9007,0.2333,0.4091,-0.326,1.78,1.6575,32253,-0.26,-9.99,-1.2349,0.2035,0.0479,0.2056,32539,0.4526,9.3906,-2.0847,0.0085,0.2237,-0.0597
33856,-9.8841,1.8969,2.9561,0.2024,0.4123,-0.3249,1.7808,1.6575,32254,-0.207,-10.0237,-1.2927,0.1843,-0.0053,0.1896,32540,0.5224,9.3954,-2.1689,0.0138,0.2386,-0.0597
33857,-9.8793,1.9547,2.9874,0.1832,0.4112,-0.3249,1.78,1.6575,32255,-0.0698,-10.055,-1.2999,0.1875,-0.0352,0.1886,32541,0.3755,9.4098,-2.1593,0.017,0.2461,-0.0575
33858,-9.8769,2.0269,3.0066,0.1449,0.4101,-0.3238,1.78,1.6575,32256,-0.0506,-10.0574,-1.1964,0.179,-0.0501,0.1779,32542,0.2359,9.4002,-2.1256,0.0149,0.2216,-0.0543
33859,-9.8744,2.0726,3.0163,0.1001,0.4048,-0.3206,1.7808,1.6575,32257,0.0457,-10.0405,-1.1795,0.1736,-0.0927,0.1694,32543,0.3418,9.3761,-2.1497,0.016,0.179,-0.0501
33860,-9.8769,2.1328,3.0331,0.065,0.4016,-0.3196,1.7808,1.6575,32258,0.1107,-10.0068,-1.1819,0.1502,-0.1001,0.1609,32544,0.414,9.3906,-2.2893,0.0224,0.1736,-0.0522
33861,-9.8769,2.1328,3.0331,0.065,0.4016,-0.3196,1.78,1.6575,32259,0.2335,-9.9539,-1.2397,0.1449,-0.1108,0.1534,32545,0.4453,9.4387,-2.4072,0.0213,0.1694,-0.0543
33862,-9.8817,2.1713,3.0307,0.0053,0.3941,-0.3132,1.78,1.6575,32259,0.2335,-9.9539,-1.2397,0.1449,-0.1108,0.1534,32545,0.4453,9.4387,-2.4072,0.0213,0.1694,-0.0543
33863,-9.9009,2.2146,3.0163,-0.0394,0.3878,-0.3089,1.78,1.6575,32260,0.3033,-9.9106,-1.2638,0.1257,-0.0991,0.1491,32546,0.3659,9.511,-2.3783,0.0181,0.1747,-0.0575
33864,-9.913,2.2556,3.0524,-0.1087,0.3771,-0.2983,1.7808,1.6575,32261,0.3394,-9.8769,-1.2686,0.114,-0.081,0.1449,32547,0.3755,9.5302,-2.3254,0.0043,0.1449,-0.0586
33865,-9.913,2.2556,3.0524,-0.1566,0.3686,-0.2844,1.78,1.6575,32262,0.4261,-9.8311,-1.2734,0.115,-0.0703,0.1449,32548,0.4237,9.4965,-2.2917,-0.0021,0.1353,-0.0618
33866,-9.9707,2.2556,3.1703,-0.2258,0.3526,-0.2748,1.78,1.6567,32263,0.4165,-9.8648,-1.2445,0.098,-0.0245,0.1406,32549,0.3996,9.5013,-2.14,-0.0021,0.131,-0.0618
33867,-9.9948,2.1858,3.2016,-0.2684,0.3377,-0.2567,1.78,1.6575,32264,0.2768,-9.9491,-1.1771,0.0905,-0.016,0.131,32550,0.3105,9.5206,-2.0197,-0.0053,0.1076,-0.0629
33868,-10.002,2.1039,3.2233,-0.3196,0.3143,-0.2439,1.7808,1.6583,32265,0.272,-9.9322,-1.1844,0.0767,-0.0107,0.1278,32551,0.1757,9.535,-1.9234,-0.0075,0.0948,-0.065
33869,-10.0309,2.0774,3.2281,-0.3473,0.2908,-0.2248,1.78,1.6575,32266,0.2696,-9.937,-1.1507,0.0682,-0.0011,0.1236,32551,0.1757,9.535,-1.9234,-0.0075,0.0948,-0.065
33870,-10.0815,2.0197,3.2064,-0.3771,0.2759,-0.2109,1.7808,1.6575,32267,0.2287,-9.9804,-1.0905,0.0479,0.0096,0.115,32553,-0.1155,9.5711,-1.8102,-0.0021,0.0437,-0.065
33871,-10.12,1.9667,3.1824,-0.391,0.2503,-0.1896,1.7808,1.6575,32268,0.2816,-9.9346,-1.141,0.0447,0.0043,0.1119,32554,-0.0698,9.588,-1.8584,0.0011,-0.0128,-0.0607
33872,-10.1922,1.9137,3.1583,-0.391,0.2333,-0.1736,1.7808,1.6575,32269,0.3057,-9.9443,-1.1651,0.0234,0.0192,0.1065,32555,0.0626,9.5904,-1.9956,0.0064,-0.0277,-0.0575
33873,-10.2427,1.8849,3.1342,-0.3792,0.2109,-0.1491,1.78,1.6567,32270,0.1974,-9.9443,-1.1555,0.0117,0.016,0.0991,32556,0.0746,9.6072,-2.051,0.0064,-0.0383,-0.0543
33874,-10.3439,1.8295,3.0957,-0.3665,0.1939,-0.1332,1.78,1.6575,32271,0.1902,-9.8865,-1.2181,0,0.0064,0.0959,32557,0.0602,9.6121,-2.0173,0,-0.0447,-0.049
33875,-10.4016,1.791,3.1174,-0.3398,0.1672,-0.1065,1.7808,1.6575,32272,0.1854,-9.8817,-1.2445,-0.0138,0.0043,0.0937,32558,0.0722,9.5639,-1.998,-0.0043,-0.0607,-0.0479
33876,-10.4979,1.7284,3.1438,-0.3164,0.1481,-0.0799,1.78,1.6575,32273,0.1805,-9.872,-1.2782,-0.0181,0,0.0927,32559,0.1854,9.5302,-2.0148,-0.0021,-0.0927,-0.0469
33877,-10.5581,1.6947,3.204,-0.277,0.1172,-0.0607,1.7808,1.6575,32274,0.1709,-9.9154,-1.2999,-0.0288,0,0.0884,32560,0.3707,9.523,-2.1256,0.0011,-0.1055,-0.0469
33878,-10.6183,1.6899,3.2305,-0.2322,0.0884,-0.0298,1.78,1.6575,32275,0.118,-9.9659,-1.2951,-0.0352,-0.0053,0.0831,32561,0.609,9.5085,-2.1954,-0.0032,-0.0948,-0.0511
33879,-10.6809,1.6778,3.2546,-0.2024,0.0692,-0.0096,1.7808,1.6575,32276,0.1276,-9.9852,-1.3529,-0.0415,-0.0149,0.081,32562,0.6403,9.5037,-2.2171,-0.0064,-0.0863,-0.0543
33880,-10.6809,1.6778,3.2546,-0.2024,0.0692,-0.0096,1.78,1.6567,32277,0.1685,-10.0285,-1.3577,-0.0458,-0.016,0.0799,32562,0.6403,9.5037,-2.2171,-0.0064,-0.0863,-0.0543
33881,-10.7242,1.6754,3.2738,-0.1726,0.0362,0.0245,1.7792,1.6567,32277,0.1685,-10.0285,-1.3577,-0.0458,-0.016,0.0799,32563,0.6692,9.5061,-2.1761,-0.016,-0.0852,-0.0629
33882,-10.7772,1.6658,3.2859,-0.13,0.016,0.0469,1.7808,1.6575,32278,0.1829,-10.0622,-1.3793,-0.0426,-0.016,0.081,32564,0.6596,9.4965,-2.1063,-0.0213,-0.0746,-0.0682
33883,-10.7916,1.6273,3.1968,-0.0245,-0.0714,0.1449,1.78,1.6575,32281,0.142,-10.0935,-1.3216,-0.0394,-0.0288,0.0842,32567,0.3298,9.5398,-1.9595,-0.0224,-0.0671,-0.0788
33884,-10.7386,1.6032,3.1414,-0.0011,-0.0937,0.1854,1.78,1.6575,32282,0.142,-10.0863,-1.3264,-0.0415,-0.0309,0.0852,32568,0.2792,9.5543,-1.9234,-0.0213,-0.0703,-0.0799
33885,-10.7386,1.6032,3.1414,-0.0011,-0.0937,0.1854,1.7808,1.6575,32282,0.142,-10.0863,-1.3264,-0.0415,-0.0309,0.0852,32568,0.2792,9.5543,-1.9234,-0.0213,-0.0703,-0.0799
33886,-10.7386,1.6032,3.1414,-0.0011,-0.0937,0.1854,1.7808,1.6575,32282,0.142,-10.0863,-1.3264,-0.0415,-0.0309,0.0852,32568,0.2792,9.5543,-1.9234,-0.0213,-0.0703,-0.0799
33887,-10.6712,1.5936,3.0355,0.0298,-0.1214,0.2077,1.78,1.6575,32283,0.1396,-10.0911,-1.3192,-0.0383,-0.0341,0.0884,32569,0.2479,9.5784,-1.8921,-0.0192,-0.065,-0.081
33888,-10.5653,1.5623,2.9753,0.0501,-0.1374,0.2439,1.7808,1.6575,32284,0.1757,-10.055,-1.3216,-0.0362,-0.0383,0.0937,32570,0.1372,9.5928,-1.8512,-0.0192,-0.066,-0.082
33889,-10.4883,1.5671,2.8959,0.0735,-0.1587,0.2653,1.78,1.6575,32285,0.1974,-10.0285,-1.3625,-0.0373,-0.0352,0.0969,32571,0.118,9.6,-1.8078,-0.017,-0.0756,-0.081
33890,-10.3896,1.6032,2.8598,0.0863,-0.179,0.2983,1.78,1.6567,32286,0.1565,-10.0357,-1.3914,-0.0352,-0.0309,0.1023,32571,0.118,9.6,-1.8078,-0.017,-0.0756,-0.081
33891,-10.3896,1.6032,2.8598,0.0863,-0.179,0.2983,1.7808,1.6575,32287,0.1444,-10.0165,-1.4299,-0.0298,-0.0383,0.1065,32573,0.2046,9.6241,-1.9234,-0.016,-0.1225,-0.0831
33892,-10.2331,1.6297,2.7442,0.1012,-0.2067,0.3462,1.7808,1.6575,32288,0.1637,-10.0117,-1.4949,-0.0256,-0.0522,0.114,32574,0.3105,9.6265,-2.0558,-0.0192,-0.1246,-0.0863
33893,-10.1272,1.6273,2.6865,0.1001,-0.2152,0.3611,1.7808,1.6575,32289,0.1854,-10.0285,-1.5527,-0.0213,-0.0565,0.1182,32575,0.1685,9.6265,-2.0606,-0.0277,-0.1044,-0.0895
33894,-10.0742,1.6177,2.6455,0.0937,-0.2248,0.3846,1.7808,1.6583,32290,0.195,-10.0357,-1.5815,-0.016,-0.0479,0.1246,32576,-0.0361,9.6096,-1.8608,-0.0469,-0.1182,-0.0884
33895,-9.9924,1.6128,2.5733,0.0874,-0.229,0.3973,1.78,1.6575,32291,0.1035,-10.0429,-1.4973,-0.0138,-0.0394,0.13,32577,-0.0867,9.5206,-1.7765,-0.0565,-0.1502,-0.0874
33896,-9.9394,1.6152,2.4939,0.0735,-0.2354,0.4123,1.78,1.6575,32292,0.0361,-10.0357,-1.4684,-0.0053,-0.0469,0.1364,32578,-0.0169,9.4532,-1.7597,-0.049,-0.1747,-0.0884
33897,-9.8696,1.5888,2.465,0.0607,-0.2386,0.425,1.78,1.6575,32293,0.0409,-9.9731,-1.4443,-0.0011,-0.0543,0.1449,32579,0.0674,9.4435,-1.7982,-0.0373,-0.1917,-0.0937
33898,-9.8143,1.5599,2.3735,0.0426,-0.2397,0.4314,1.7808,1.6575,32294,0.0457,-9.9322,-1.454,-0.0032,-0.0533,0.1481,32580,0.1565,9.4941,-1.9836,-0.0288,-0.2013,-0.098
33899,-9.8143,1.5599,2.3735,0.0426,-0.2397,0.4314,1.78,1.6575,32294,0.0457,-9.9322,-1.454,-0.0032,-0.0533,0.1481,32580,0.1565,9.4941,-1.9836,-0.0288,-0.2013,-0.098
33900,-9.7637,1.5406,2.3519,0.0298,-0.2386,0.441,1.7808,1.6575,32295,0.0385,-9.9081,-1.4371,-0.0075,-0.0522,0.1523,32581,0.2768,9.523,-2.0967,-0.0298,-0.2024,-0.1055
33901,-9.7372,1.5093,2.2869,0.0128,-0.2376,0.4463,1.7808,1.6583,32296,0.0217,-9.9033,-1.4395,-0.0064,-0.049,0.1566,32581,0.2768,9.523,-2.0967,-0.0298,-0.2024,-0.1055
33902,-9.7108,1.4949,2.2411,0.0043,-0.2322,0.4495,1.7808,1.6575,32297,-0.0241,-9.913,-1.4251,-0.0107,-0.0447,0.1598,32581,0.2768,9.523,-2.0967,-0.0298,-0.2024,-0.1055
33903,-9.7276,1.4997,2.2026,-0.0075,-0.229,0.4506,1.7808,1.6575,32298,-0.0433,-9.9154,-1.3986,-0.0138,-0.0479,0.1609,32582,0.3515,9.5422,-2.2098,-0.0383,-0.2003,-0.1108
33904,-9.7445,1.4949,2.1689,-0.0213,-0.2237,0.4517,1.78,1.6575,32298,-0.0433,-9.9154,-1.3986,-0.0138,-0.0479,0.1609,32585,0.4574,9.5302,-2.2965,-0.0714,-0.1864,-0.1364
33905,-9.7661,1.478,2.1232,-0.0309,-0.2194,0.4485,1.78,1.6567,32298,-0.0433,-9.9154,-1.3986,-0.0138,-0.0479,0.1609,32585,0.4574,9.5302,-2.2965,-0.0714,-0.1864,-0.1364
33906,-9.7878,1.454,2.0847,-0.0469,-0.212,0.4431,1.78,1.6575,32299,-0.0241,-9.9106,-1.4034,-0.016,-0.0469,0.1662,32586,0.4357,9.5085,-2.2315,-0.0756,-0.1768,-0.1491
33907,-9.8528,1.4179,2.0582,-0.0543,-0.2067,0.4336,1.7808,1.6575,32302,-0.0602,-9.9587,-1.401,-0.0224,-0.0117,0.18,32588,0.455,9.5085,-2.1256,-0.0884,-0.1694,-0.1736
33908,-9.8913,1.401,2.0148,-0.065,-0.2013,0.4272,1.7808,1.6575,32303,-0.118,-10.0333,-1.3649,-0.0288,-0.0234,0.1779,32589,0.414,9.5519,-2.063,-0.1001,-0.1438,-0.1854
33909,-9.9563,1.3866,2.0173,-0.0714,-0.1971,0.4155,1.7808,1.6575,32304,0.0289,-9.9635,-1.4516,-0.0128,-0.0309,0.1907,32590,0.2696,9.5687,-1.9908,-0.1097,-0.1385,-0.2024
33910,-10.0044,1.3745,1.9932,-0.0788,-0.1917,0.4091,1.7792,1.6567,32305,0.0554,-9.9972,-1.4106,-0.016,-0.0032,0.1928,32591,0.2215,9.5759,-1.9499,-0.1257,-0.1406,-0.212
33911,-10.055,1.3649,1.9836,-0.081,-0.1854,0.3995,1.7808,1.6575,32306,-0.0843,-10.0598,-1.3625,-0.017,-0.0053,0.1949,32592,0.2407,9.5759,-1.9089,-0.1332,-0.1374,-0.228
33912,-10.0646,1.3697,1.9523,-0.0842,-0.1832,0.3941,1.78,1.6575,32307,-0.1035,-10.0478,-1.3793,-0.0138,-0.0138,0.1971,32593,0.2479,9.6169,-1.8752,-0.1427,-0.1342,-0.2386
33913,-10.0767,1.3673,1.9306,-0.0874,-0.179,0.3867,1.7808,1.6575,32308,-0.0939,-10.0598,-1.4082,-0.0138,-0.0192,0.2056,32594,0.2407,9.6241,-1.8656,-0.1523,-0.1225,-0.2546
33914,-10.0959,1.3745,1.8873,-0.0884,-0.1758,0.3824,1.7808,1.6575,32309,-0.1348,-10.0791,-1.4203,-0.0149,-0.0128,0.2045,32595,0.1757,9.6578,-1.8367,-0.1587,-0.1129,-0.2674
33915,-10.0935,1.3721,1.8825,-0.0916,-0.1704,0.375,1.7808,1.6583,32310,-0.207,-10.0454,-1.4323,-0.0085,-0.0256,0.2088,32596,0.1107,9.6771,-1.803,-0.1704,-0.1172,-0.2855
33916,-10.1031,1.3601,1.8463,-0.0927,-0.1672,0.3696,1.7808,1.6575,32311,-0.1926,-9.9418,-1.5406,0.0011,-0.032,0.2184,32597,0.0915,9.6506,-1.8319,-0.1768,-0.1257,-0.3057
33917,-10.1031,1.3697,1.8271,-0.0991,-0.1598,0.3686,1.78,1.6575,32312,-0.2263,-9.9491,-1.5262,0.0043,-0.0288,0.2237,32598,0.1324,9.6193,-1.9089,-0.1832,-0.1332,-0.3196
33918,-10.1031,1.3697,1.8271,-0.0991,-0.1598,0.3686,1.78,1.6575,32312,-0.2263,-9.9491,-1.5262,0.0043,-0.0288,0.2237,32598,0.1324,9.6193,-1.9089,-0.1832,-0.1332,-0.3196
33919,-10.1055,1.3288,1.8295,-0.1033,-0.1555,0.3665,1.78,1.6575,32313,-0.2913,-9.8191,-1.531,0.017,-0.0373,0.2429,32599,0.1757,9.6169,-1.9547,-0.1896,-0.131,-0.3419
33920,-10.1344,1.2903,1.8295,-0.1119,-0.1481,0.3665,1.7808,1.6575,32314,-0.2431,-9.8359,-1.5647,0.0245,-0.0426,0.2471,32600,0.1565,9.6361,-1.9763,-0.2035,-0.1268,-0.3569
33921,-10.2018,1.2542,1.8391,-0.1172,-0.1438,0.3707,1.7792,1.6567,32315,-0.3611,-10.0141,-1.466,0.016,-0.0469,0.2312,32601,0.1155,9.6241,-1.9691,-0.2162,-0.1289,-0.3782
33922,-10.2427,1.1964,1.8488,-0.1246,-0.1374,0.3707,1.78,1.6575,32316,-0.3515,-9.9659,-1.5262,0.0128,-0.0746,0.2301,32602,0.077,9.6145,-1.9619,-0.2312,-0.1289,-0.3931
33923,-10.3029,1.1603,1.8223,-0.1278,-0.1353,0.3707,1.7808,1.6575,32317,-0.2792,-10.0044,-1.5117,0.0043,-0.0703,0.2248,32603,-0.012,9.6,-1.9619,-0.2429,-0.1459,-0.4144
33924,-10.3679,1.1001,1.7958,-0.1257,-0.1342,0.3718,1.7808,1.6575,32318,-0.3274,-9.9154,-1.4708,0.0277,-0.081,0.2386,32604,-0.012,9.6096,-1.9643,-0.2503,-0.1545,-0.4293
33925,-10.3824,1.0688,1.7862,-0.1172,-0.1342,0.3707,1.78,1.6567,32319,-0.2841,-9.9322,-1.4636,0.0309,-0.1001,0.2471,32605,-0.0072,9.6241,-1.9811,-0.2599,-0.1641,-0.4485
33926,-10.404,1.0158,1.7284,-0.1097,-0.1353,0.3707,1.7808,1.6575,32320,-0.2359,-9.9202,-1.466,0.0437,-0.1225,0.261,32605,-0.0072,9.6241,-1.9811,-0.2599,-0.1641,-0.4485
33927,-10.4161,0.9797,1.6995,-0.098,-0.1353,0.3686,1.7808,1.6575,32321,-0.1781,-9.978,-1.478,0.0394,-0.1321,0.2674,32607,-0.0987,9.6482,-1.9691,-0.2834,-0.1886,-0.49
33928,-10.392,0.9147,1.6514,-0.0863,-0.1364,0.3665,1.7808,1.6575,32322,-0.1998,-9.9876,-1.4636,0.065,-0.1395,0.2898,32608,-0.0217,9.6482,-1.9811,-0.294,-0.2013,-0.5167
33929,-10.3607,0.2431,1.6225,-0.0692,-0.1364,0.3622,1.7808,1.6575,32323,-0.1637,-9.9298,-1.4467,0.082,-0.1555,0.2993,32609,-0.0217,9.6482,-1.9571,-0.3089,-0.2003,-0.5358
33930,-10.3102,0.7896,1.6104,-0.0565,-0.1353,0.3537,1.78,1.6567,32324,-0.0915,-10.0141,-1.3866,0.0714,-0.1502,0.2961,32610,-0.0506,9.6843,-1.9089,-0.3164,-0.2152,-0.5635
33931,-10.2885,0.7149,1.5984,-0.0341,-0.1332,0.3462,1.7808,1.6575,32325,-0.1011,-10.0694,-1.3721,0.0565,-0.1342,0.2919,32611,-0.0481,9.7228,-1.8199,-0.3313,-0.2344,-0.5838
33932,-10.2283,0.6668,1.5719,-0.017,-0.1268,0.3356,1.7808,1.6575,32326,-0.1998,-10.0935,-1.3673,0.0575,-0.1182,0.2919,32612,0.0072,9.7517,-1.7549,-0.3377,-0.2525,-0.6168
33933,-10.185,0.5898,1.5719,0.0096,-0.1225,0.327,1.7808,1.6575,32327,-0.2913,-10.0333,-1.401,0.065,-0.114,0.2908,32613,0.0818,9.7998,-1.7067,-0.3547,-0.2674,-0.6424
33934,-10.1585,0.5537,1.5623,0.3025,-0.114,0.31,1.7808,1.6575,32328,-0.4598,-10.055,-1.4467,0.0607,-0.1502,0.2887,32614,0.1324,9.8239,-1.7188,-0.3792,-0.2748,-0.6882
33935,-10.1585,0.4911,1.5984,0.0586,-0.1065,0.2929,1.7808,1.6575,32329,-0.5488,-10.1296,-1.5238,0.0756,-0.2109,0.2929,32615,0.1276,9.8576,-1.7164,-0.3931,-0.2642,-0.7212
33936,-10.1681,0.4574,1.6104,0.0852,-0.0948,0.2802,1.78,1.6575,32329,-0.5488,-10.1296,-1.5238,0.0756,-0.2109,0.2929,32616,0,9.9418,-1.6321,-0.4016,-0.2407,-0.7649
33937,-10.1681,0.4574,1.6104,0.0852,-0.0948,0.2802,1.7808,1.6575,32329,-0.5488,-10.1296,-1.5238,0.0756,-0.2109,0.2929,32616,0,9.9418,-1.6321,-0.4016,-0.2407,-0.7649
33938,-10.1802,0.4285,1.6562,0.1044,-0.0884,-0.0064,1.7808,1.6575,32331,-0.2768,-10.1296,-1.4227,0.1513,-0.3665,0.3228,32617,-0.1276,10.0622,-1.5478,-0.4165,-0.2727,-0.8192
33939,-10.1874,0.4044,1.6778,0.1289,-0.082,0.2461,1.7808,1.6575,32331,-0.2768,-10.1296,-1.4227,0.1513,-0.3665,0.3228,32618,-0.0794,10.0863,-1.5984,-0.441,-0.3217,-0.8533
33940,-10.1705,0.3611,1.6923,0.1449,-0.0778,0.2258,1.78,1.6575,32333,0.2479,-10.1079,-0.8618,0.2194,-0.4506,0.392,32619,0.0361,10.197,-1.6634,-0.4368,-0.3356,-0.9076
33941,-10.1513,0.349,1.7139,0.1672,-0.0703,0.2109,1.7808,1.6575,32334,0.2744,-10.1392,-0.6981,0.1928,-0.4027,0.4048,32620,0.1324,10.2933,-1.8849,-0.4527,-0.3707,-0.9492
33942,-10.1296,0.3202,1.7308,0.1811,-0.066,0.1886,1.78,1.6567,32335,-0.195,-10.2259,-0.7968,0.1928,-0.392,0.4272,32621,0.3057,10.3511,-1.9619,-0.4687,-0.4016,-1.0141
33943,-10.0959,0.3153,1.7428,0.2013,-0.0586,0.1726,1.7808,1.6575,32335,-0.195,-10.2259,-0.7968,0.1928,-0.392,0.4272,32622,0.6187,10.5196,-2.1111,-0.4794,-0.4591,-1.0546
33944,-10.055,0.3009,1.738,0.2131,-0.0501,0.1491,1.7808,1.6575,32337,-0.4598,-10.0622,-1.1507,0.196,-0.3739,0.4442,32623,1.3817,10.6231,-2.4698,-0.4783,-0.4314,-1.1356
33945,-9.99,0.2841,1.7139,0.228,-0.0437,0.1342,1.78,1.6567,32337,-0.4598,-10.0622,-1.1507,0.196,-0.3739,0.4442,32624,1.3288,10.9264,-3.1824,-0.4368,-0.3292,-1.1931
33946,-9.99,0.2841,1.7139,0.228,-0.0437,0.1342,1.7808,1.6575,32339,-0.7366,-10.067,-1.5551,0.1854,-0.3856,0.4389,32625,0.7727,11.2008,-3.4255,-0.4453,-0.2546,-1.2591
33947,-9.9033,0.3033,1.7067,0.2439,-0.0266,0.0937,1.7808,1.6575,32339,-0.7366,-10.067,-1.5551,0.1854,-0.3856,0.4389,32625,0.7727,11.2008,-3.4255,-0.4453,-0.2546,-1.2591
33948,-9.8985,0.3033,1.6923,0.2482,-0.016,0.0703,1.7808,1.6575,32339,-0.7366,-10.067,-1.5551,0.1854,-0.3856,0.4389,32627,-0.0433,11.5643,-2.6311,-0.5412,-0.3356,-1.3273
33949,-9.9033,0.3153,1.7115,0.2503,-0.0075,0.0543,1.78,1.6575,32342,-0.5488,-10.0237,-1.4636,0.1854,-0.4091,0.4368,32628,0.0144,11.6004,-2.3206,-0.5412,-0.3398,-1.3646
33950,-9.9226,0.3394,1.726,0.2503,0.0064,0.0309,1.7808,1.6575,32342,-0.5488,-10.0237,-1.4636,0.1854,-0.4091,0.4368,32629,-0.1035,11.6293,-1.9113,-0.5337,-0.2844,-1.3923
33951,-9.9924,0.3563,1.7717,0.2471,0.016,0.0096,1.78,1.6575,32344,-0.5657,-10.1946,-1.3095,0.1875,-0.3878,0.4527,32630,-0.3563,11.6365,-1.649,-0.5475,-0.5561,-1.4381
33952,-10.0502,0.3274,1.8512,0.2365,0.0298,-0.0032,1.7808,1.6575,32344,-0.5657,-10.1946,-1.3095,0.1875,-0.3878,0.4527,32631,-0.2889,11.7256,-1.2132,-0.5678,-0.3185,-1.4733
33953,-10.1368,0.3081,1.9162,0.229,0.0405,-0.0213,1.78,1.6575,32346,-0.3322,-10.4329,-1.2205,0.1726,-0.3665,0.4698,32632,0.6211,11.7545,-1.076,-0.5795,-0.3281,-1.5095
33954,-10.2115,0.2913,2.0221,0.2162,0.0458,-0.0352,1.7808,1.6575,32346,-0.3322,-10.4329,-1.2205,0.1726,-0.3665,0.4698,32633,1.584,11.976,-0.9966,-0.5454,-0.2258,-1.534
33955,-10.2596,0.2744,2.1087,0.2077,0.0522,-0.0501,1.7808,1.6575,32348,-0.8064,-10.6231,-1.4082,0.1854,-0.3451,0.4836,32634,2.0365,12.2937,-0.8594,-0.5103,0.0629,-1.5904
33956,-10.2596,0.2744,2.1087,0.2077,0.0522,-0.0501,1.78,1.6575,32348,-0.8064,-10.6231,-1.4082,0.1854,-0.3451,0.4836,32634,2.0365,12.2937,-0.8594,-0.5103,0.0629,-1.5904
33957,-10.3102,0.2479,2.2098,0.1949,0.0543,-0.0597,1.7808,1.6575,32348,-0.8064,-10.6231,-1.4082,0.1854,-0.3451,0.4836,32635,1.3119,12.7415,-0.7751,-0.5262,0.2237,-1.632
33958,-10.3439,0.2191,2.2387,0.1864,0.0597,-0.0714,1.78,1.6575,32350,-0.8883,-10.4088,-1.413,0.2269,-0.4176,0.5028,32636,0.9123,12.8233,-0.7342,-0.5987,0.326,-1.6799
33959,-10.3872,0.1902,2.3206,0.1822,0.0607,-0.0788,1.78,1.6575,32350,-0.8883,-10.4088,-1.413,0.2269,-0.4176,0.5028,32637,0.9942,12.6572,-0.727,-0.6381,0.3356,-1.7055
33960,-10.3872,0.1878,2.3663,0.1768,0.0639,-0.0905,1.7817,1.6583,32350,-0.8883,-10.4088,-1.413,0.2269,-0.4176,0.5028,32637,0.9942,12.6572,-0.727,-0.6381,0.3356,-1.7055
33961,-10.445,0.1829,2.3904,0.1758,0.066,-0.1044,1.78,1.6575,32350,-0.8883,-10.4088,-1.413,0.2269,-0.4176,0.5028,32639,1.3456,12.6018,-0.869,-0.6264,0.4091,-1.7971
33962,-10.4763,0.1733,2.4169,0.1747,0.0682,-0.115,1.78,1.6583,32350,-0.8883,-10.4088,-1.413,0.2269,-0.4176,0.5028,32640,1.194,12.5826,-1.0664,-0.6338,0.3963,-1.8259
33963,-10.4955,0.1637,2.4506,0.1758,0.0714,-0.13,1.78,1.6575,32355,-0.5994,-10.4329,-0.8883,0.2482,-0.3771,0.5369,32641,1.1049,12.6091,-1.1723,-0.6381,0.3611,-1.8642
33964,-10.5003,0.1492,2.4963,0.179,0.0724,-0.1406,1.78,1.6575,32355,-0.5994,-10.4329,-0.8883,0.2482,-0.3771,0.5369,32642,0.3129,12.585,-1.1386,-0.6487,0.3483,-1.8855
33965,-10.5027,0.1348,2.5035,0.1843,0.0746,-0.1587,1.7808,1.6575,32355,-0.5994,-10.4329,-0.8883,0.2482,-0.3771,0.5369,32642,0.3129,12.585,-1.1386,-0.6487,0.3483,-1.8855
33966,-10.4979,0.1252,2.5468,0.1939,0.0756,-0.1704,1.7808,1.6575,32355,-0.5994,-10.4329,-0.8883,0.2482,-0.3771,0.5369,32644,0.9268,11.7978,-1.1266,-0.6828,0.1641,-1.893
33967,-10.4907,0.1155,2.5757,0.2056,0.0788,-0.1928,1.7808,1.6575,32355,-0.5994,-10.4329,-0.8883,0.2482,-0.3771,0.5369,32645,1.4756,11.2754,-1.2542,-0.6605,0.0905,-1.8493
33968,-10.4498,0.0987,2.6263,0.2141,0.081,-0.2077,1.7808,1.6583,32360,-0.9484,-10.4064,-1.1266,0.2823,-0.3228,0.5774,32645,1.4756,11.2754,-1.2542,-0.6605,0.0905,-1.8493
33969,-10.4281,0.1059,2.6455,0.228,0.0852,-0.2312,1.7808,1.6575,32360,-0.9484,-10.4064,-1.1266,0.2823,-0.3228,0.5774,32647,3.3268,10.0574,-1.6417,-0.5731,0.0085,-1.681
33970,-10.4281,0.1059,2.6455,0.228,0.0852,-0.2312,1.7808,1.6583,32360,-0.9484,-10.4064,-1.1266,0.2823,-0.3228,0.5774,32647,3.3268,10.0574,-1.6417,-0.5731,0.0085,-1.681
33971,-10.3607,0.118,2.7178,0.2567,0.0959,-0.2684,1.7808,1.6583,32360,-0.9484,-10.4064,-1.1266,0.2823,-0.3228,0.5774,32649,4.8987,8.5408,-1.6947,-0.4879,0.1055,-1.4189
33972,-10.315,0.1541,2.7635,0.2695,0.1012,-0.2898,1.7808,1.6575,32360,-0.9484,-10.4064,-1.1266,0.2823,-0.3228,0.5774,32650,5.3007,8.5144,-1.5045,-0.4602,0.1108,-1.2091
33973,-10.2933,0.1685,2.8405,0.2855,0.1119,-0.3025,1.7808,1.6583,32365,-1.0014,-10.2596,-0.7823,0.2844,-0.2674,0.588,32651,5.6618,7.8548,-1.3095,-0.4016,0.1225,-1.0546
33974,-10.2957,0.1854,2.8983,0.2951,0.1236,-0.3228,1.78,1.6575,32366,-1.1362,-10.3077,-0.7222,0.0085,-0.2269,0.5848,32652,5.8905,7.525,-1.1892,-0.3409,0.1917,-0.8075
33975,-10.2957,0.1854,2.8983,0.2951,0.1236,-0.3228,1.78,1.6575,32366,-1.1362,-10.3077,-0.7222,0.0085,-0.2269,0.5848,32652,5.8905,7.525,-1.1892,-0.3409,0.1917,-0.8075
33976,-10.3077,0.2191,2.9777,0.31,0.131,-0.3377,1.7808,1.6575,32367,-1.3143,-10.4161,-0.7799,0.278,-0.212,0.5795,32653,5.7148,7.3083,-1.1362,-0.2365,0.2333,-0.6253
33977,-10.3174,0.2479,3.0283,0.3185,0.1417,-0.3569,1.78,1.6575,32368,-1.413,-10.4425,-0.8473,0.2812,-0.1928,0.5699,32654,5.2935,7.1832,-1.1386,-0.1758,0.2077,-0.3302
33978,-10.3222,0.3274,3.0764,0.3302,0.147,-0.3718,1.7808,1.6575,32369,-1.6225,-10.445,-0.9196,0.2823,-0.179,0.5625,32655,5.5848,6.9593,-1.2855,-0.0788,0.1545,-0.1278
33979,-10.339,0.3683,3.1125,0.3398,0.1555,-0.3899,1.7808,1.6575,32370,-1.6802,-10.4835,-1.0086,0.2812,-0.1928,0.5475,32656,5.9555,6.9497,-1.5406,0.0234,0.1417,0.1609
33980,-10.3583,0.4333,3.1679,0.3441,0.1609,-0.4048,1.7808,1.6575,32371,-1.7741,-10.4329,-1.0471,0.2823,-0.1907,0.5316,32657,6.0879,7.1061,-1.8295,0.0703,0.1566,0.3398
33981,-10.3583,0.4333,3.1679,0.3441,0.1609,-0.4048,1.7808,1.6583,32372,-1.945,-10.3511,-1.076,0.3025,-0.2173,0.5305,32658,5.9675,7.1832,-1.8488,0.1023,0.1353,0.5934
33982,-10.392,0.5248,3.2064,0.3505,0.1726,-0.4442,1.78,1.6575,32373,-1.8656,-10.2861,-1.1218,0.3121,-0.2663,0.5273,32659,5.7436,7.1326,-1.8078,0.1182,0.1033,0.8213
33983,-10.4016,0.5705,3.2425,0.3505,0.179,-0.4687,1.7808,1.6575,32374,-1.7476,-10.3848,-1.129,0.31,-0.2812,0.5177,32660,5.5511,7.0724,-1.6851,0.1587,0.0703,0.963
33984,-10.4016,0.6259,3.2546,0.3494,0.18,-0.4943,1.7808,1.6575,32375,-1.6827,-10.4329,-1.1049,0.3057,-0.2759,0.4943,32661,5.1779,7.1446,-1.6104,0.196,0.0501,1.1654
33985,-10.392,0.6644,3.2714,0.3483,0.1811,-0.5124,1.7808,1.6575,32376,-1.6995,-10.3029,-1.011,0.3228,-0.2844,0.4879,32662,5.0022,7.4696,-1.5912,0.2503,0.0149,1.2996
33986,-10.3727,0.6861,3.3003,0.3462,0.1768,-0.539,1.7808,1.6575,32377,-1.7332,-10.2379,-0.9244,0.3238,-0.2876,0.4772,32663,4.8,7.7176,-1.6201,0.277,0.0085,1.4924
33987,-10.3077,0.7101,3.3027,0.3409,0.1758,-0.5571,1.7808,1.6583,32378,-1.6321,-10.2018,-0.816,0.3206,-0.3036,0.4708,32664,4.0056,8.0714,-1.5767,0.3057,0.0128,1.6128
33988,-10.274,0.7149,3.2955,0.3366,0.1704,-0.5827,1.7808,1.6575,32379,-1.596,-10.1441,-0.8064,0.327,-0.2993,0.4677,32665,4.2126,8.1942,-1.5166,0.3132,0.0107,1.7769
33989,-10.2163,0.7101,3.322,0.3324,0.1662,-0.5987,1.78,1.6575,32380,-1.5406,-10.0622,-0.6861,0.3451,-0.2908,0.4645,32666,3.9286,8.4686,-1.4227,0.3292,0.0117,1.8802
33990,-10.1633,0.6764,3.3099,0.3313,0.1587,-0.621,1.78,1.6575,32380,-1.5406,-10.0622,-0.6861,0.3451,-0.2908,0.4645,32667,3.6734,8.6444,-1.3986,0.3558,0.0213,2.0197
33991,-10.1633,0.6235,3.2786,0.3356,0.1523,-0.637,1.7808,1.6575,32382,-1.3143,-10.0622,-0.6788,0.3036,-0.2802,0.4421,32668,3.2618,8.784,-1.3456,0.3707,0.0032,2.1039
33992,-10.0068,0.6114,3.2161,0.3473,0.1427,-0.6573,1.78,1.6575,32383,-1.3216,-10.0165,-0.7053,0.3164,-0.2386,0.4442,32669,3.1366,8.9043,-1.4106,0.3963,-0.0149,2.2147
33993,-10.0068,0.6114,3.2161,0.3473,0.1427,-0.6573,1.7808,1.6575,32384,-1.5045,-10.0887,-0.6427,0.3249,-0.2226,0.4421,32670,2.9248,9.0993,-1.4323,0.4112,-0.0149,2.3031
33994,-9.8769,0.5994,3.1824,0.3579,0.1374,-0.6743,1.78,1.6575,32384,-1.5045,-10.0887,-0.6427,0.3249,-0.2226,0.4421,32670,2.9248,9.0993,-1.4323,0.4112,-0.0149,2.3031
33995,-9.8769,0.5994,3.1824,0.3579,0.1374,-0.6743,1.7808,1.6575,32385,-1.608,-10.1248,-0.6018,0.3111,-0.2248,0.44,32671,2.7852,9.2413,-1.4901,0.4346,-0.0266,2.3532
33996,-9.795,0.6018,3.1438,0.3803,0.13,-0.6999,1.78,1.6575,32387,-1.5045,-10.0767,-0.5537,0.3217,-0.2407,0.4645,32673,2.4072,9.6819,-1.5695,0.4794,-0.0224,2.4522
33997,-9.5952,0.6379,3.1053,0.4229,0.1193,-0.6999,1.7808,1.6575,32387,-1.5045,-10.0767,-0.5537,0.3217,-0.2407,0.4645,32673,2.4072,9.6819,-1.5695,0.4794,-0.0224,2.4522
33998,-9.4941,0.6692,3.0933,0.44,0.114,-0.7063,1.7808,1.6583,32388,-1.649,-10.1513,-0.5176,0.3132,-0.2354,0.474,32674,2.1328,9.783,-1.5864,0.4858,-0.0352,2.497
33999,-9.3978,0.7125,3.0524,0.4623,0.1108,-0.7095,1.78,1.6567,32389,-1.6634,-10.0767,-0.5874,0.3249,-0.2599,0.489,32675,2.0317,10.067,-1.6369,0.523,-0.0202,2.5247
34000,-9.3497,0.727,3.0355,0.4847,0.1097,-0.7116,1.78,1.6575,32390,-1.5214,-9.9178,-0.6788,0.3547,-0.2716,0.5028,32676,1.6297,10.2548,-1.6345,0.5369,0.0053,2.5534
34001,-9.2991,0.7727,3.0187,0.4975,0.1097,-0.7116,1.78,1.6575,32391,-1.4853,-9.8889,-0.7149,0.3601,-0.2407,0.5198,32677,1.2806,10.445,-1.6201,0.5433,0.0011,2.5726
34002,-9.2991,0.7727,3.0187,0.4975,0.1097,-0.7116,1.7808,1.6575,32392,-1.5984,-9.8961,-0.7727,0.3633,-0.2216,0.5198,32678,1.1097,10.5677,-1.6827,0.555,-0.0096,2.5971
34003,-9.2702,0.8883,3.0138,0.5198,0.1097,-0.7063,1.7808,1.6575,32393,-1.6754,-9.7926,-0.7559,0.3633,-0.2013,0.5273,32679,0.9918,10.7049,-2.0341,0.5635,0.0128,2.6142
34004,-9.275,0.9484,3.0259,0.5241,0.1087,-0.6999,1.7808,1.6575,32394,-1.7236,-9.7613,-0.6861,0.3675,-0.1822,0.5273,32680,0.7751,10.7916,-2.3013,0.588,0.1278,2.6237
34005,-9.2847,1.0086,3.0259,0.523,0.1076,-0.6924,1.7808,1.6575,32395,-1.8536,-9.7445,-0.6066,0.3686,-0.1619,0.5273,32681,-0.0241,11.0564,-2.3519,0.6019,0.2045,2.6429
34006,-9.2847,1.0086,3.0259,0.523,0.1076,-0.6924,1.7792,1.6567,32396,-1.933,-9.783,-0.585,0.3707,-0.1598,0.5241,32682,-0.5488,11.2032,-2.4072,0.5902,0.2535,2.6664
34007,-9.2943,1.0303,3.0163,0.5145,0.1076,-0.6764,1.78,1.6575,32397,-2.0028,-9.718,-0.5513,0.3558,-0.1374,0.5177,32683,-1.1145,11.1527,-2.3904,0.5806,0.2919,2.71
34008,-9.3208,1.0134,3.0211,0.5081,0.1076,-0.6711,1.78,1.6575,32398,-2.1689,-9.6385,-0.4646,0.3601,-0.13,0.5273,32684,-1.3745,11.0419,-2.323,0.6051,0.31,2.7377
34009,-9.3593,0.9966,2.9898,0.5028,0.1076,-0.6637,1.7808,1.6575,32399,-2.2339,-9.6554,-0.4381,0.3569,-0.1395,0.5369,32685,-1.6032,11.0588,-2.2941,0.6328,0.3079,2.7718
34010,-9.3954,0.9484,2.9777,0.4985,0.1065,-0.6573,1.78,1.6575,32400,-2.2821,-9.7709,-0.4309,0.3547,-0.1491,0.5412,32686,-1.6008,11.1262,-2.2483,0.6732,0.2961,2.7889
34011,-9.3906,0.922,2.9681,0.4964,0.1055,-0.653,1.7808,1.6567,32401,-2.2796,-9.7565,-0.5296,0.3547,-0.1598,0.5507,32687,-1.5117,11.1286,-2.2387,0.7031,0.2866,2.8048
34012,-9.3906,0.922,2.9681,0.4964,0.1055,-0.653,1.78,1.6567,32403,-2.3735,-9.8311,-0.7486,0.3771,-0.1779,0.5752,32689,-1.2686,10.8783,-2.1352,0.7372,0.3089,2.8027
34013,-9.405,0.8353,2.9657,0.5071,0.1055,-0.6434,1.78,1.6575,32404,-2.2772,-9.795,-0.8112,0.3867,-0.1832,0.5891,32690,-1.2301,10.7218,-2.01,0.7595,0.3174,2.7857
34014,-9.4002,0.7486,2.9392,0.5316,0.1087,-0.6381,1.78,1.6575,32405,-2.3182,-9.8287,-0.881,0.3814,-0.1736,0.5944,32691,-1.1699,10.9938,-2.4987,0.8884,0.2067,2.7793
34015,-9.4002,0.7486,2.9392,0.5316,0.1087,-0.6381,1.7808,1.6575,32405,-2.3182,-9.8287,-0.881,0.3814,-0.1736,0.5944,32691,-1.1699,10.9938,-2.4987,0.8884,0.2067,2.7793
34016,-9.4002,0.7486,2.9392,0.5316,0.1087,-0.6381,1.7808,1.6575,32405,-2.3182,-9.8287,-0.881,0.3814,-0.1736,0.5944,32691,-1.1699,10.9938,-2.4987,0.8884,0.2067,2.7793
34017,-9.381,0.6861,2.9392,0.5433,0.1119,-0.6338,1.7808,1.6575,32406,-2.4385,-9.8961,-0.8835,0.3675,-0.1641,0.5912,32692,0.3611,12.1276,-3.2161,0.9928,0.1108,2.759
34018,-9.3713,0.6548,2.9248,0.5614,0.115,-0.6349,1.7808,1.6575,32407,-2.5035,-9.9081,-0.8979,0.3973,-0.1928,0.6029,32693,0.8088,12.2889,-3.0764,0.947,0.5518,2.6696
34019,-9.3424,0.6451,2.9127,0.5731,0.1214,-0.637,1.78,1.6575,32408,-2.3446,-9.925,-0.9629,0.425,-0.2056,0.6157,32694,-1.8632,11.8387,-1.8825,0.8245,0.8703,2.448
34020,-9.3352,0.6572,2.8574,0.5902,0.1278,-0.6392,1.78,1.6575,32409,-2.3254,-9.9804,-0.8955,0.4325,-0.196,0.6338,32695,-4.6435,11.5547,0.1444,0.6562,0.6285,2.3276
34021,-9.34,0.6692,2.8357,0.604,0.1374,-0.6434,1.78,1.6575,32410,-2.3832,-10.0429,-0.869,0.4517,-0.1949,0.6424,32696,-4.4341,11.6125,0.597,0.5742,0.1385,2.2179
34022,-9.3424,0.7101,2.802,0.6125,0.1449,-0.6487,1.7808,1.6575,32411,-2.3398,-10.0285,-0.7823,0.457,-0.2056,0.6466,32697,-3.6253,11.4151,0.5272,0.5699,0.1353,2.1454
34023,-9.3424,0.739,2.79,0.62,0.1534,-0.653,1.7808,1.6575,32412,-2.3422,-10.12,-0.5344,0.4485,-0.196,0.6562,32698,-4.2367,11.1094,0.6475,0.5965,0.2727,2.0133
34024,-9.3328,0.804,2.7948,0.621,0.1609,-0.6573,1.7808,1.6583,32413,-2.3904,-10.1248,-0.3803,0.4581,-0.2237,0.6711,32699,-5.5174,10.9673,0.9701,0.6083,0.196,1.9441
34025,-9.3352,0.8353,2.8309,0.6147,0.1704,-0.6615,1.7808,1.6575,32414,-2.3446,-10.1392,-0.2768,0.4911,-0.2461,0.6903,32700,-5.6016,11.0299,0.544,0.6125,0.0011,1.8876
34026,-9.3424,0.9147,2.8646,0.6061,0.1768,-0.6647,1.7808,1.6575,32415,-2.1689,-10.2187,-0.1878,0.4985,-0.2482,0.7052,32701,-4.9781,10.8373,0.0144,0.6136,-0.0149,1.8269
34027,-9.3424,0.9797,2.9079,0.5848,0.1854,-0.6658,1.7808,1.6567,32416,-2.0798,-10.3342,-0.1324,0.506,-0.2546,0.7159,32702,-4.93,10.6375,-0.4718,0.6413,0.0884,1.7758
34028,-9.4002,0.9894,2.9272,0.5667,0.196,-0.6637,1.7808,1.6575,32417,-1.9306,-10.404,-0.1228,0.5081,-0.2546,0.7286,32703,-5.4114,10.4329,-0.5705,0.653,0.0831,1.698
34029,-9.4652,0.9821,2.92,0.5348,0.1992,-0.6637,1.7808,1.6575,32418,-1.7982,-10.4474,-0.2431,0.5294,-0.2333,0.7478,32704,-5.5414,10.2307,-0.792,0.6456,0.017,1.6458
34030,-9.4652,0.9821,2.92,0.5007,0.2035,-0.6615,1.7808,1.6575,32419,-1.8584,-10.4835,-0.1974,0.5401,-0.1875,0.7531,32705,-5.1442,10.0357,-1.0544,0.6381,-0.0075,1.5606
34031,-9.5037,0.9773,2.9031,0.5007,0.2035,-0.6615,1.78,1.6575,32420,-2.0437,-10.5027,-0.0939,0.5497,-0.1694,0.7638,32705,-5.1442,10.0357,-1.0544,0.6381,-0.0075,1.5606
34032,-9.5567,0.9749,2.9103,0.4772,0.2067,-0.6615,1.78,1.6575,32420,-2.0437,-10.5027,-0.0939,0.5497,-0.1694,0.7638,32706,-4.8939,9.8672,-1.1964,0.6328,0.0469,1.4882
34033,-9.6048,0.9797,2.9031,0.4442,0.2099,-0.6583,1.7808,1.6575,32421,-2.1111,-10.4714,0.0698,0.588,-0.1672,0.7755,32707,-4.8217,9.9876,-1.1555,0.6125,0.115,1.3657
34034,-9.6867,0.9292,2.8935,0.424,0.2109,-0.6594,1.78,1.6575,32422,-2.1304,-10.4835,0.1781,0.5923,-0.1641,0.784,32708,-4.8072,10.1392,-1.064,0.5625,0.1523,1.2741
34035,-9.7589,0.8786,2.867,0.4005,0.2162,-0.6605,1.78,1.6575,32423,-2.1858,-10.5725,0.2985,0.6136,-0.1651,0.7936,32709,-4.7735,10.1537,-1.011,0.4804,0.2386,1.1196
34036,-9.8407,0.7848,2.8718,0.391,0.2194,-0.6605,1.78,1.6575,32424,-2.2508,-10.6977,0.3731,0.6029,-0.1704,0.7883,32710,-4.8193,10.2403,-0.9605,0.4229,0.3409,0.9449
34037,-9.8889,0.7318,2.8959,0.3846,0.2226,-0.6637,1.7808,1.6575,32425,-2.2315,-10.7242,0.39,0.6392,-0.1907,0.8043,32711,-5.1972,10.2403,-0.6427,0.3206,0.5145,0.8234
34038,-9.9611,0.6572,2.92,0.3856,0.2248,-0.6669,1.78,1.6567,32426,-2.1858,-10.7603,0.4285,0.6487,-0.1992,0.8139,32712,-6.0518,10.0598,-0.479,0.2493,0.5689,0.6424
34039,-10.0261,0.6163,2.9585,0.392,0.229,-0.669,1.7808,1.6575,32427,-2.1352,-10.9457,0.3876,0.6445,-0.2056,0.8149,32713,-6.5693,9.8359,-0.3009,0.1672,0.5752,0.5252
34040,-10.12,0.6114,2.9801,0.3995,0.2312,-0.6711,1.7808,1.6575,32428,-2.116,-11.0275,0.3442,0.6583,-0.2216,0.8256,32714,-7.2891,9.4989,-0.2263,0.1449,0.4922,0.3483
34041,-10.1753,0.6307,2.9898,0.4133,0.2322,-0.6722,1.7808,1.6575,32429,-1.8752,-11.0227,0.2696,0.6818,-0.2312,0.8522,32715,-7.5467,9.2197,-0.2889,0.13,0.3782,0.2301
34042,-10.1753,0.6307,2.9898,0.4133,0.2322,-0.6722,1.78,1.6567,32430,-1.7476,-11.0997,0.1637,0.6935,-0.2152,0.8639,32716,-7.5033,9.1041,-0.4237,0.1257,0.196,0.0415
34043,-10.2596,0.7029,3.0355,0.4368,0.2365,-0.6732,1.7808,1.6575,32431,-1.6827,-11.1912,0.0241,0.7191,-0.2131,0.9055,32717,-7.2915,9.0151,-0.6692,0.1119,0.0905,-0.0948
34044,-10.2813,0.739,3.0283,0.4506,0.2386,-0.6722,1.7808,1.6575,32432,-1.5743,-11.2779,-0.0241,0.7489,-0.2024,0.9246,32718,-7.2024,9.0102,-0.7944,0.0714,-0.0458,-0.3132
34045,-10.3126,0.792,2.9922,0.4623,0.2429,-0.6679,1.7808,1.6575,32433,-1.5551,-11.4536,-0.1517,0.735,-0.212,0.9513,32719,-7.2482,9.0969,-0.8835,0.0234,-0.114,-0.4645
34046,-10.3463,0.8233,2.9657,0.4826,0.2493,-0.6573,1.7808,1.6575,32434,-1.2999,-11.521,-0.2792,0.7617,-0.2035,0.9683,32720,-7.4889,9.1643,-0.1733,-0.066,-0.1907,-0.7041
34047,-10.38,0.8955,2.944,0.4964,0.2525,-0.6413,1.7808,1.6575,32435,-1.2614,-11.6028,-0.3539,0.7926,-0.1896,1.0131,32721,-8.0113,9.3449,-0.4935,-0.1278,-0.2354,-0.9513
34048,-10.4209,0.9557,2.8742,0.5198,0.2599,-0.6306,1.7808,1.6575,32436,-1.1771,-11.7737,-0.337,0.8053,-0.1832,1.0397,32722,-8.1725,9.6072,0.4068,-0.2088,-0.3302,-1.1111
34049,-10.445,0.9749,2.8429,0.5358,0.2674,-0.6115,1.7808,1.6575,32437,-1.1025,-11.87,-0.2792,0.8469,-0.179,1.0844,32723,-7.602,9.6121,1.478,-0.2759,-0.7531,-1.29
34050,-10.445,0.9749,2.8429,0.5358,0.2674,-0.6115,1.78,1.6575,32438,-1.1771,-12.0169,0.0144,0.8682,-0.1726,1.1143,32723,-7.602,9.6121,1.478,-0.2759,-0.7531,-1.29
34051,-10.469,1.0423,2.8092,0.5614,0.2738,-0.5987,1.7808,1.6575,32438,-1.1771,-12.0169,0.0144,0.8682,-0.1726,1.1143,32724,-5.2863,9.8841,2.2893,-0.2099,-1.1398,-1.2922
34052,-10.5268,1.0977,2.8044,0.849,0.2844,-0.5752,1.7792,1.6567,32439,-1.1434,-12.1083,0.2407,0.9129,-0.2173,1.142,32725,1.3047,10.4161,1.194,-0.0831,-1.3966,-1.2187
34053,-10.5894,1.1675,2.8044,0.5965,0.2929,-0.5593,1.78,1.6575,32440,-0.869,-12.1204,0.349,0.9342,-0.228,1.1654,32726,5.4548,10.0068,-1.1049,0.0874,-1.0173,-1.2027
34054,-10.6303,1.2205,2.7972,0.6104,0.3057,-0.5326,1.7808,1.6575,32440,-0.869,-12.1204,0.349,0.9342,-0.228,1.1654,32727,6.1216,9.6939,-2.1328,0.2056,-0.3004,-1.2101
34055,-10.7266,1.3408,2.8165,0.6157,0.3121,-0.5145,1.7808,1.6575,32440,-0.869,-12.1204,0.349,0.9342,-0.228,1.1654,32728,5.2261,10.2813,-2.7298,0.1768,0.0117,-1.2133
34056,-10.7844,1.4106,2.8381,0.6157,0.3228,-0.4858,1.7808,1.6583,32443,-0.1541,-11.8411,0.3683,1.028,-0.2312,1.2645,32729,4.6893,10.7242,-2.5252,-0.016,0.2908,-1.1984
34057,-10.8494,1.5093,2.8742,0.6115,0.3292,-0.4687,1.7808,1.6583,32444,-0.2792,-11.9543,0.5079,0.9822,-0.1001,1.289,32730,3.8371,10.4088,-1.738,-0.1204,0.4421,-1.1856
34058,-10.8831,1.5888,2.92,0.5923,0.3356,-0.4442,1.78,1.6575,32445,-0.4381,-11.9374,0.4863,1.0163,-0.1459,1.3199,32731,2.9464,9.9274,-1.0158,-0.1119,0.6306,-1.1814
34059,-10.9096,1.7115,2.9561,0.572,0.3377,-0.4176,1.7808,1.6575,32446,-0.2841,-11.7039,0.3563,1.0472,-0.1108,1.3902,32732,1.4684,9.5952,-0.9027,-0.0266,0.6615,-1.1846
34060,-10.9144,1.8319,2.997,0.5326,0.3419,-0.3984,1.78,1.6575,32447,-0.2239,-11.7713,0.272,1.0621,-0.0937,1.4839,32732,1.4684,9.5952,-0.9027,-0.0266,0.6615,-1.1846
34061,-10.8927,1.9426,3.0211,0.5007,0.3419,-0.3728,1.7808,1.6575,32448,-0.1492,-11.8989,0.1444,1.0962,-0.0842,1.5532,32734,0.2239,10.4931,-0.9292,0.1822,0.5433,-1.1867
34062,-10.8614,2.0991,3.0644,0.44,0.3398,-0.3547,1.7808,1.6575,32449,-0.13,-12.118,0.0554,1.127,-0.0831,1.665,32735,0.1035,11.2706,-0.9484,0.1992,0.506,-1.1867
34063,-10.8157,2.1785,3.0668,0.3941,0.3377,-0.3292,1.7808,1.6575,32450,-0.1733,-12.3394,-0.1902,1.1718,-0.082,1.7374,32736,-0.053,11.5547,-1.0953,0.1758,0.5145,-1.1984
34064,-10.7627,2.2965,3.0644,0.3185,0.3356,-0.3111,1.78,1.6575,32451,-0.4213,-12.8642,-0.3202,1.1974,-0.1129,1.8418,32737,-0.2118,11.6654,-1.2806,0.1332,0.5039,-1.208
34065,-10.7362,2.3687,3.05,0.2376,0.3356,-0.2823,1.78,1.6575,32452,-0.414,-13.3096,-0.6596,1.2474,-0.1619,1.9121,32738,-0.3442,11.6606,-1.4179,0.1097,0.4559,-1.2261
34066,-10.7242,2.4891,3.0187,0.1811,0.3356,-0.261,1.7808,1.6583,32453,-0.1878,-13.6297,-0.8473,1.2804,-0.1747,2.0144,32739,-0.4333,11.4632,-1.7019,0.1097,0.4112,-1.2389
34067,-10.741,2.595,2.9946,0.0916,0.3334,-0.2258,1.7808,1.6583,32454,0.0144,-14.0052,-1.076,1.3081,-0.1992,2.0762,32740,-0.4983,11.3693,-2.0052,0.131,0.3281,-1.2634
34068,-10.7555,2.6455,2.9777,0.032,0.3292,-0.1854,1.78,1.6575,32455,0.1781,-14.0004,-1.348,1.3582,-0.2131,2.1795,32741,-1.052,11.2971,-3.3942,0.1427,0.2823,-1.2623
34069,-10.7555,2.6455,2.9777,0.032,0.3292,-0.1854,1.7808,1.6575,32455,0.1781,-14.0004,-1.348,1.3582,-0.2131,2.1795,32741,-1.052,11.2971,-3.3942,0.1427,0.2823,-1.2623
34070,-10.7435,2.6937,2.9296,-0.0575,0.3196,-0.1577,1.7808,1.6575,32456,0.3972,-13.933,-1.6273,1.3827,-0.1715,2.2584,32742,-1.3553,11.1647,-4.1886,0.1193,0.18,-1.2559
34071,-10.729,2.7659,2.8863,-0.1161,0.3111,-0.114,1.78,1.6575,32457,0.1348,-14.128,-2.0148,1.4008,-0.0565,2.3702,32743,-1.2036,11.0612,-4.1862,0.0927,0.0746,-1.2602
34072,-10.717,2.8189,2.8429,-0.2056,0.2961,-0.082,1.7808,1.6575,32458,-0.6138,-14.2749,-2.3109,1.4221,-0.016,2.4735,32744,-0.5272,11.0492,-3.9623,0.066,-0.081,-1.2613
34073,-10.6472,2.8453,2.8189,-0.2642,0.278,-0.032,1.7808,1.6575,32459,-0.816,-14.3591,-2.5493,1.4232,-0.0682,2.5492,32745,0.6018,10.7218,-3.8949,0.0458,-0.0735,-1.2655
34074,-10.5557,2.8742,2.7924,-0.3526,0.2631,0.0064,1.78,1.6575,32460,-0.6572,-14.6745,-2.9296,1.4083,-0.0437,2.6408,32746,0.8257,10.1296,-3.736,0.0138,-0.0266,-1.2634
34075,-10.4979,2.9031,2.7635,-0.441,0.2376,0.065,1.78,1.6575,32461,-0.9172,-14.9224,-2.9801,1.3955,0.0245,2.6759,32747,0.5657,9.8167,-3.594,-0.0117,0.0341,-1.2453
34076,-10.4979,2.9031,2.7635,-0.4996,0.2194,0.1065,1.7808,1.6575,32462,-1.2566,-14.8333,-2.6624,1.3955,-0.0085,2.6717,32748,-0.077,9.5519,-3.1944,-0.0469,0.066,-1.2229
34077,-10.3077,2.9609,2.7611,-0.588,0.1886,0.1726,1.7808,1.6583,32463,-1.1338,-14.7515,-2.388,1.3678,-0.0831,2.6514,32749,-0.3972,9.3376,-2.855,-0.0778,0.0554,-1.1707
34078,-10.1681,2.92,2.7226,-0.6466,0.1662,0.2194,1.78,1.6575,32464,-0.8401,-14.6456,-2.4987,1.3508,-0.1864,2.6046,32750,-0.6138,9.0199,-2.3952,-0.0618,0.0032,-1.1324
34079,-10.067,2.8477,2.7226,-0.7297,0.1321,0.2887,1.78,1.6575,32465,-0.6114,-13.9691,-2.9248,1.3348,-0.1683,2.5502,32751,-0.3563,9.0632,-2.1063,0.0032,-0.0618,-1.0823
34080,-9.913,2.7154,2.7298,-0.7776,0.1076,0.359,1.78,1.6567,32466,-0.9581,-13.6081,-3.1631,1.257,-0.1108,2.4267,32752,-0.2648,9.2823,-1.8319,0.0352,-0.0479,-1.0504
34081,-9.8143,2.6239,2.7178,-0.8416,0.0703,0.4037,1.7808,1.6575,32467,-1.6369,-13.0688,-3.387,1.2133,-0.1236,2.2413,32753,-0.4357,9.4363,-1.5671,0.0607,-0.0639,-1.0269
34082,-9.7011,2.595,2.7178,-0.8788,0.032,0.4751,1.7808,1.6575,32468,-1.6875,-12.5104,-3.6157,1.143,-0.2354,2.1007,32754,-0.39,9.6578,-1.4034,0.0703,-0.1055,-0.98
34083,-9.6337,2.5372,2.6841,-0.9342,0.0064,0.5209,1.78,1.6575,32469,-0.8955,-12.3298,-3.7481,1.0674,-0.2887,1.9367,32755,-0.2937,9.7517,-1.3288,0.081,-0.1406,-0.9534
34084,-9.5567,2.5059,2.6504,-0.9683,-0.032,0.5891,1.7808,1.6575,32470,0.1396,-12.7005,-3.6301,1.0322,-0.147,1.8813,32756,-0.2287,9.86,-1.3047,0.1023,-0.1513,-0.9268
34085,-9.5013,2.4433,2.6191,-1.0141,-0.0554,0.6317,1.7808,1.6575,32471,0.5825,-11.9567,-3.3196,1.3571,0.3835,1.8834,32757,-0.1829,10.0742,-1.3817,0.1289,-0.1609,-0.9076
34086,-9.5013,2.4433,2.6191,-1.0141,-0.0916,0.6935,1.78,1.6575,32472,-2.0221,-8.9308,-2.6142,1.2496,0.8053,1.8653,32757,-0.1829,10.0742,-1.3817,0.1289,-0.1609,-0.9076
34087,-9.4989,2.3398,2.5757,-1.0823,-0.115,0.7308,1.7808,1.6575,32473,-5.3633,-7.3926,-2.1015,1.2112,0.9566,1.6735,32758,-0.065,10.1224,-1.5743,0.1353,-0.1395,-0.882
34088,-9.7372,2.2002,2.4915,-1.1686,-0.212,0.8522,1.7808,1.6575,32476,-3.0042,-8.2929,-2.0726,0.8842,-1.3721,0.1981,32762,-0.9725,9.9081,-1.8728,0.1406,-0.033,-0.7947
34089,-9.7372,2.2002,2.4915,-1.1686,-0.212,0.8522,1.78,1.6575,32476,-3.0042,-8.2929,-2.0726,0.8842,-1.3721,0.1981,32762,-0.9725,9.9081,-1.8728,0.1406,-0.033,-0.7947
34090,-9.8937,2.1617,2.465,-1.1867,-0.2354,0.8852,1.7808,1.6575,32477,-0.0193,-7.2289,-3.6325,0.5912,-0.9204,-0.131,32763,-1.0953,9.8191,-2.0052,0.1662,-0.0905,-0.7627
34091,-9.8937,2.1617,2.465,-1.1867,-0.2354,0.8852,1.7808,1.6575,32477,-0.0193,-7.2289,-3.6325,0.5912,-0.9204,-0.131,32763,-1.0953,9.8191,-2.0052,0.1662,-0.0905,-0.7627
34092,-9.8937,2.1617,2.465,-1.1867,-0.2354,0.8852,1.7808,1.6575,32477,-0.0193,-7.2289,-3.6325,0.5912,-0.9204,-0.131,32763,-1.0953,9.8191,-2.0052,0.1662,-0.0905,-0.7627
34093,-10.0237,2.1472,2.4433,-1.2123,-0.2706,0.9055,1.78,1.6575,32478,0.9966,-6.2829,-3.6782,0.3643,-0.3409,-0.4868,32764,-1.0327,9.86,-2.0871,0.1875,-0.1768,-0.7436
34094,-10.262,2.1376,2.4506,-1.2272,-0.3047,0.931,1.7808,1.6575,32480,1.336,-6.2227,-3.4881,-0.0309,-0.4975,-0.8863,32766,-0.8088,9.8119,-2.1424,0.1928,-0.3185,-0.7041
34095,-10.5027,2.1472,2.4289,-1.2506,-0.327,0.9481,1.78,1.6575,32480,1.336,-6.2227,-3.4881,-0.0309,-0.4975,-0.8863,32766,-0.8088,9.8119,-2.1424,0.1928,-0.3185,-0.7041
34096,-10.676,2.1352,2.4361,-1.2698,-0.3633,0.9715,1.78,1.6575,32481,1.7645,-6.0494,-3.3099,-0.1097,-0.4357,-1.045,32766,-0.8088,9.8119,-2.1424,0.1928,-0.3185,-0.7041
34097,-10.676,2.1352,2.4361,-1.2698,-0.3633,0.9715,1.7808,1.6575,32482,1.9186,-5.7051,-3.0981,-0.2045,-0.4133,-1.2069,32766,-0.8088,9.8119,-2.1424,0.1928,-0.3185,-0.7041
34098,-11.1286,2.1184,2.4265,-1.2836,-0.4293,1.0067,1.7808,1.6575,32483,2.2435,-5.45,-2.802,-0.3196,-0.4272,-1.3071,32766,-0.8088,9.8119,-2.1424,0.1928,-0.3185,-0.7041
34099,-11.3934,2.0606,2.3663,-1.2815,-0.457,1.0205,1.78,1.6575,32484,2.27,-5.462,-1.7356,-0.4186,-0.3281,-1.4775,32766,-0.8088,9.8119,-2.1424,0.1928,-0.3185,-0.7041
34100,-11.5475,2.0004,2.3133,-1.2634,-0.5007,1.044,1.78,1.6575,32485,1.2734,-5.3777,-1.4901,-0.4911,-0.2546,-1.8717,32766,-0.8088,9.8119,-2.1424,0.1928,-0.3185,-0.7041
34101,-11.7713,1.8921,2.2724,-1.241,-0.5337,1.0695,1.78,1.6575,32486,0.9075,-5.2622,-1.1097,-0.5827,-0.3473,-1.7417,32772,0.4477,9.6121,-3.5988,0.1502,-0.343,-0.6967
34102,-11.8965,1.7621,2.1978,-1.1899,-0.5848,1.0898,1.7808,1.6575,32487,0.4429,-5.1804,-0.9364,-0.6583,-0.4144,-1.9132,32772,0.4477,9.6121,-3.5988,0.1502,-0.343,-0.6967
34103,-12.0289,1.6947,2.1713,-1.143,-0.636,1.1239,1.78,1.6575,32488,0.4285,-5.8712,-0.8931,-0.784,-0.5859,-2.0155,32774,0.414,9.6337,-3.6157,0.1225,-0.3047,-0.7233
34104,-12.0843,1.6201,2.1135,-1.0578,-0.6701,1.1494,1.7808,1.6575,32489,0.9557,-5.4981,-0.9316,-0.8714,-0.6456,-2.1902,32775,0.2022,9.6867,-3.4712,0.1012,-0.2546,-0.7308
34105,-12.1517,1.5864,2.0702,-0.9513,-0.7201,1.1931,1.7808,1.6575,32490,1.2205,-5.7099,-0.9557,-0.98,-0.5902,-2.3138,32776,-0.3202,9.7204,-3.2329,0.0746,-0.2407,-0.7297
34106,-12.1637,1.531,1.986,-0.8714,-0.751,1.2251,1.78,1.6575,32491,1.3384,-5.941,-0.934,-1.3241,-0.6072,-2.4799,32777,-0.5681,9.6915,-2.8044,0.0394,-0.2535,-0.7222
34107,-12.1637,1.531,1.986,-0.8714,-0.751,1.2251,1.78,1.6575,32491,1.3384,-5.941,-0.934,-1.3241,-0.6072,-2.4799,32777,-0.5681,9.6915,-2.8044,0.0394,-0.2535,-0.7222
34108,-12.1348,1.4997,1.945,-0.7414,-0.7968,1.2762,1.7808,1.6575,32492,1.7091,-6.343,-0.8907,-1.1547,-0.572,-2.5843,32778,-0.7679,9.6626,-2.5685,0.0256,-0.2834,-0.7063
34109,-12.0626,1.4443,1.8704,-0.6477,-0.8266,1.3135,1.78,1.6567,32493,1.8271,-6.5669,-0.8257,-1.2655,-0.4847,-2.7345,32779,-0.8618,9.6795,-2.2748,0.0213,-0.2898,-0.6956
34110,-12.0024,1.4034,1.8175,-0.4985,-0.8671,1.3721,1.78,1.6575,32493,1.8271,-6.5669,-0.8257,-1.2655,-0.4847,-2.7345,32780,-0.8859,9.7252,-2.14,0.016,-0.2908,-0.6818
34111,-12.0024,1.4034,1.8175,-0.4985,-0.8671,1.3721,1.78,1.6575,32494,2.0317,-6.9304,-0.7125,-1.3454,-0.4176,-2.8315,32781,-0.8907,9.73,-1.9499,0.0107,-0.2983,-0.6743
34112,-11.8074,1.3336,1.6947,-0.2461,-0.9225,1.4754,1.78,1.6567,32496,1.9282,-7.3613,-0.4574,-1.5223,-0.1012,-3.0999,32782,-0.8329,9.7132,-1.8825,0.0149,-0.3164,-0.6679
34113,-11.6413,1.324,1.6465,-0.1502,-0.9396,1.5393,1.78,1.6575,32497,1.7164,-7.513,-0.1396,-1.6075,0.032,-3.1766,32783,-0.7751,9.7252,-1.8776,0.0213,-0.3238,-0.6658
34114,-11.5306,1.3601,1.5912,-0.016,-0.9619,1.5798,1.7808,1.6575,32498,1.5286,-7.6766,-0.012,-1.6703,0.1129,-3.2885,32784,-0.7318,9.7204,-2.0678,0.0362,-0.3547,-0.6658
34115,-11.3862,1.3962,1.5623,0.0629,-0.979,1.6416,1.7808,1.6575,32499,1.401,-7.8813,0.1035,-1.7769,0.2461,-3.3588,32784,-0.7318,9.7204,-2.0678,0.0362,-0.3547,-0.6658
34116,-11.2417,1.454,1.4925,0.1672,-0.9864,1.6799,1.78,1.6567,32499,1.401,-7.8813,0.1035,-1.7769,0.2461,-3.3588,32784,-0.7318,9.7204,-2.0678,0.0362,-0.3547,-0.6658
34117,-11.1455,1.4997,1.4732,0.2258,-0.9918,1.7311,1.78,1.6567,32501,-0.0794,-8.5168,0.5416,-1.9686,0.4069,-3.5303,32785,-0.5561,9.7252,-2.3302,0.0426,-0.3824,-0.6679
34118,-11.0155,1.5623,1.4347,0.2983,-0.9918,1.763,1.78,1.6575,32502,0.1709,-8.6853,0.5344,-2.0698,0.4336,-3.6443,32785,-0.5561,9.7252,-2.3302,0.0426,-0.3824,-0.6679
34119,-10.3703,2.051,1.3192,0.3835,-0.9428,1.9196,1.78,1.6575,32508,-1.3384,-11.1695,0.8714,-2.449,0.4623,-4.081,32794,-0.934,9.2678,-2.6792,0.017,-0.391,-0.6818
34120,-10.3703,2.051,1.3192,0.3835,-0.9428,1.9196,1.78,1.6575,32508,-1.3384,-11.1695,0.8714,-2.449,0.4623,-4.081,32794,-0.934,9.2678,-2.6792,0.017,-0.391,-0.6818
34121,-10.2861,2.1641,1.3216,0.3377,-0.93,1.9271,1.78,1.6575,32509,-1.4684,-11.4801,0.9051,-2.4757,0.3963,-4.1226,32794,-0.934,9.2678,-2.6792,0.017,-0.391,-0.6818
34122,-10.2861,2.1641,1.3216,0.3377,-0.93,1.9271,1.78,1.6575,32509,-1.4684,-11.4801,0.9051,-2.4757,0.3963,-4.1226,32794,-0.934,9.2678,-2.6792,0.017,-0.391,-0.6818
34123,-10.2861,2.1641,1.3216,0.3377,-0.93,1.9271,1.78,1.6575,32509,-1.4684,-11.4801,0.9051,-2.4757,0.3963,-4.1226,32794,-0.934,9.2678,-2.6792,0.017,-0.391,-0.6818
34124,-10.2861,2.1641,1.3216,0.3377,-0.93,1.9271,1.7808,1.6575,32509,-1.4684,-11.4801,0.9051,-2.4757,0.3963,-4.1226,32794,-0.934,9.2678,-2.6792,0.017,-0.391,-0.6818
34125,-10.2861,2.1641,1.3216,0.3377,-0.93,1.9271,1.7808,1.6575,32509,-1.4684,-11.4801,0.9051,-2.4757,0.3963,-4.1226,32794,-0.934,9.2678,-2.6792,0.017,-0.391,-0.6818
34126,-10.1609,2.2171,1.3216,0.2983,-0.9108,1.9313,1.78,1.6567,32510,-1.5166,-11.9013,0.934,-2.4938,0.3356,-4.1343,32795,-0.8883,9.3112,-2.7587,0.0117,-0.4091,-0.6892
34127,-10.1609,2.2171,1.3216,0.2983,-0.9108,1.9313,1.7808,1.6575,32510,-1.5166,-11.9013,0.934,-2.4938,0.3356,-4.1343,32795,-0.8883,9.3112,-2.7587,0.0117,-0.4091,-0.6892
34128,-10.0285,2.2917,1.2999,0.2269,-0.898,1.9313,1.7808,1.6575,32511,-1.3456,-12.1059,0.8738,-2.4906,0.2653,-4.1258,32797,-0.9244,9.4989,-2.8116,0.0117,-0.4282,-0.718
34129,-9.9539,2.347,1.271,0.1417,-0.8778,1.9281,1.7808,1.6575,32513,-1.3625,-12.6018,0.7511,-2.5055,0.2152,-4.0864,32798,-0.9123,9.5398,-2.8935,0.016,-0.4826,-0.7404
34130,-9.8191,2.3856,1.1964,0.081,-0.8639,1.9217,1.78,1.6575,32513,-1.3625,-12.6018,0.7511,-2.5055,0.2152,-4.0864,32799,-0.8859,9.535,-3.0668,0.0256,-0.5103,-0.7553
34131,-9.718,2.4048,1.1675,-0.0202,-0.8416,1.909,1.7808,1.6575,32514,-1.2951,-12.8642,0.6548,-2.5044,0.1886,-4.0544,32800,-0.7222,9.5182,-3.2112,0.0298,-0.5699,-0.7798
34132,-9.5856,2.4265,1.0688,-0.0905,-0.8234,1.8962,1.7808,1.6575,32515,-1.1699,-13.1025,0.662,-2.4991,0.1513,-3.9926,32801,-0.7583,9.5182,-3.5266,0.0309,-0.5827,-0.7979
34133,-9.4893,2.4217,1.0183,-0.2003,-0.7968,1.8759,1.7808,1.6575,32516,-0.7968,-13.4155,0.6307,-2.4831,0.1385,-3.9212,32802,-0.9388,9.47,-3.5603,0.0107,-0.6253,-0.8224
34134,-9.3834,2.3687,0.9918,-0.2738,-0.7766,1.8493,1.78,1.6575,32517,-0.5344,-13.5455,0.609,-2.4703,0.2003,-3.8754,32803,-1.0207,9.3954,-3.476,-0.0021,-0.6722,-0.8384
34135,-9.3256,2.2772,0.9701,-0.3792,-0.7446,1.8259,1.78,1.6575,32517,-0.5344,-13.5455,0.609,-2.4703,0.2003,-3.8754,32804,-0.9653,9.3256,-3.3749,-0.016,-0.7308,-0.8448
34136,-9.2847,2.2002,0.9581,-0.44,-0.7137,1.7896,1.7808,1.6575,32519,-0.7486,-13.8945,0.9894,-2.4725,0.4442,-3.7881,32805,-0.9484,9.2052,-3.3148,-0.0192,-0.7318,-0.8533
34137,-9.251,2.0919,0.9605,-0.5188,-0.6924,1.763,1.7808,1.6575,32520,-1.1651,-13.8873,1.064,-2.4714,0.5561,-3.7508,32806,-1.1603,9.2462,-3.0524,-0.016,-0.718,-0.8533
34138,-9.1956,2.0124,0.9677,-0.5603,-0.6573,1.7151,1.7808,1.6583,32521,-1.5238,-13.8391,1.0471,-2.4895,0.6306,-3.7338,32807,-1.6128,9.4267,-2.7852,-0.0202,-0.7627,-0.8458
34139,-9.1643,1.9017,0.9484,-0.6136,-0.6338,1.6799,1.78,1.6575,32522,-1.7886,-13.8801,1.0833,-2.5396,0.7063,-3.7284,32807,-1.6128,9.4267,-2.7852,-0.0202,-0.7627,-0.8458
34140,-9.1643,1.8439,0.9605,-0.653,-0.5955,1.6245,1.7808,1.6575,32523,-2.0437,-13.909,0.9605,-2.5577,0.7521,-3.7156,32807,-1.6128,9.4267,-2.7852,-0.0202,-0.7627,-0.8458
34141,-9.1836,1.7765,1.0014,-0.6732,-0.571,1.5851,1.7808,1.6575,32524,-2.1376,-14.0558,0.8425,-2.6003,0.8085,-3.7018,32807,-1.6128,9.4267,-2.7852,-0.0202,-0.7627,-0.8458
34142,-9.1836,1.7765,1.0014,-0.6732,-0.5305,1.5233,1.7808,1.6575,32524,-2.1376,-14.0558,0.8425,-2.6003,0.8085,-3.7018,32811,-1.726,9.8913,-1.1868,-0.1182,-0.897,-0.8107
34143,-9.3256,1.6514,1.141,-0.7169,-0.4922,1.4562,1.78,1.6575,32526,-2.075,-14.388,0.6716,-2.6216,0.9683,-3.6634,32812,-1.6947,10.067,-0.9436,-0.1161,-0.882,-0.8139
34144,-9.3954,1.6128,1.206,-0.735,-0.4677,1.4104,1.7808,1.6583,32527,-2.2026,-14.5084,0.6066,-2.6227,1.0386,-3.6326,32812,-1.6947,10.067,-0.9436,-0.1161,-0.882,-0.8139
34145,-9.3954,1.6128,1.206,-0.735,-0.4677,1.4104,1.7808,1.6575,32527,-2.2026,-14.5084,0.6066,-2.6227,1.0386,-3.6326,32813,-1.7573,10.197,-0.7992,-0.1236,-0.8852,-0.8298
34146,-9.4893,1.5647,1.2662,-0.7446,-0.4453,1.3358,1.7808,1.6575,32528,-2.2796,-14.5565,0.4526,-2.6206,1.1611,-3.607,32813,-1.7573,10.197,-0.7992,-0.1236,-0.8852,-0.8298
34147,-9.5326,1.5382,1.3264,-0.7521,-0.4123,1.2868,1.78,1.6567,32529,-2.672,-14.6143,0.3852,-2.6195,1.3294,-3.5612,32815,-1.6393,10.339,-0.6379,-0.147,-0.9225,-0.8714
34148,-9.5759,1.5093,1.3553,-0.7553,-0.3824,1.2091,1.78,1.6575,32530,-3.4399,-14.6913,0.455,-2.5992,1.4232,-3.5282,32816,-1.1819,10.3102,-0.7462,-0.1566,-0.931,-0.9033
34149,-9.5928,1.466,1.3914,-0.7531,-0.3611,1.1569,1.7808,1.6575,32531,-4.0201,-14.6961,0.4863,-2.5566,1.5564,-3.4749,32817,-0.9653,10.3029,-0.9605,-0.1609,-0.8522,-0.9289
34150,-9.5928,1.4323,1.3962,-0.7468,-0.3313,1.077,1.78,1.6575,32532,-5.0985,-14.6937,0.816,-2.5151,1.6437,-3.4376,32818,-1.3456,10.38,-0.9749,-0.1555,-0.7894,-0.9619
34151,-9.5784,1.3866,1.413,-0.7372,-0.3111,1.0237,1.78,1.6575,32533,-5.8736,-14.7009,1.1795,-2.4309,1.7364,-3.3918,32819,-1.5286,10.457,-1.1964,-0.1662,-0.8554,-0.98
34152,-9.5278,1.348,1.413,-0.7201,-0.2823,0.946,1.78,1.6575,32534,-6.9593,-14.7082,1.998,-2.3574,1.7651,-3.3513,32820,-1.2758,10.3751,-1.5503,-0.1832,-0.881,-1.012
34153,-9.4556,1.2542,1.389,-0.7041,-0.2631,0.8938,1.78,1.6567,32535,-7.7296,-14.5758,2.9585,-2.2307,1.7044,-3.3183,32821,-1.4732,10.4618,-1.8223,-0.18,-0.8607,-1.0322
34154,-9.4026,1.1988,1.3842,-0.6722,-0.2333,0.8139,1.7808,1.6583,32536,-8.5866,-14.2267,3.4471,-2.1444,1.5446,-3.2427,32822,-1.5093,10.5244,-1.986,-0.2045,-0.9033,-1.0589
34155,-9.3232,1.1242,1.3842,-0.6466,-0.212,0.7382,1.78,1.6575,32537,-8.6564,-13.8632,3.5146,-2.0272,1.2464,-3.1713,32823,-1.3745,10.5388,-2.2676,-0.2344,-0.9364,-1.0802
34156,-9.2534,1.0568,1.4034,-0.6008,-0.1779,0.6903,1.7808,1.6575,32538,-8.5336,-13.6466,3.2594,-1.9643,1.0333,-3.0403,32824,-1.194,10.445,-2.3759,-0.2876,-0.9151,-1.1185
34157,-9.1812,1.0183,1.4299,-0.5699,-0.1417,0.62,1.7808,1.6575,32539,-8.524,-13.4323,2.7033,-1.8834,0.9257,-2.9327,32825,-1.2662,10.2427,-2.2941,-0.3185,-0.8693,-1.1686
34158,-9.1475,0.9701,1.4564,-0.5188,-0.1172,0.5752,1.7808,1.6575,32540,-8.6853,-13.5045,2.4072,-1.8014,0.7851,-2.7324,32826,-1.4708,10.1513,-2.0173,-0.3494,-0.848,-1.191
34159,-9.1306,0.9557,1.4901,-0.4858,-0.082,0.5113,1.78,1.6575,32541,-9.044,-13.9162,1.608,-1.7215,0.718,-2.5843,32827,-1.4636,10.2042,-1.8704,-0.359,-0.8863,-1.224
34160,-9.1475,0.9003,1.5358,-0.4389,-0.0586,0.4708,1.7808,1.6575,32541,-9.044,-13.9162,1.608,-1.7215,0.718,-2.5843,32828,-1.2566,10.25,-1.8512,-0.3686,-0.9268,-1.2538
34161,-9.198,0.8594,1.5599,-0.3931,-0.0234,0.4091,1.7808,1.6575,32541,-9.044,-13.9162,1.608,-1.7215,0.718,-2.5843,32828,-1.2566,10.25,-1.8512,-0.3686,-0.9268,-1.2538
34162,-9.2365,0.8136,1.6201,-0.3665,-0.0021,0.3494,1.78,1.6575,32544,-11.1021,-13.466,0.6861,-1.1867,0.702,-1.9271,32830,0.1204,10.5846,-2.1569,-0.3633,-0.8543,-1.3348
34163,-9.2365,0.8136,1.6201,-0.3665,-0.0021,0.3494,1.78,1.6575,32545,-12.0891,-12.922,0.8907,-1.0514,0.6914,-1.649,32830,0.1204,10.5846,-2.1569,-0.3633,-0.8543,-1.3348
34164,-9.2365,0.7751,1.6658,-0.3313,0.0298,0.31,1.7808,1.6575,32545,-12.0891,-12.922,0.8907,-1.0514,0.6914,-1.649,32831,-0.1228,10.7483,-2.4048,-0.3792,-0.7169,-1.3934
34165,-9.3112,0.6259,1.7308,-0.2514,0.0969,0.1385,1.78,1.6575,32548,-11.3116,-12.6765,0.8835,-0.7116,0.4005,-0.8938,32833,-0.1878,11.1912,-2.6648,-0.4346,-0.5081,-1.486
34166,-9.848,0.5801,1.8175,-0.0799,0.3153,-0.245,1.78,1.6575,32554,-9.1908,-12.0409,3.0981,0.066,0.0394,1.0056,32840,-0.4165,12.053,-2.1906,-0.6115,-0.4613,-1.7769
34167,-9.848,0.5801,1.8175,-0.0799,0.3153,-0.245,1.78,1.6575,32554,-9.1908,-12.0409,3.0981,0.066,0.0394,1.0056,32840,-0.4165,12.053,-2.1906,-0.6115,-0.4613,-1.7769
34168,-9.848,0.5801,1.8175,-0.0799,0.3153,-0.245,1.78,1.6575,32554,-9.1908,-12.0409,3.0981,0.066,0.0394,1.0056,32840,-0.4165,12.053,-2.1906,-0.6115,-0.4613,-1.7769
34169,-10.0742,0.6235,1.8849,-0.0618,0.3462,-0.3025,1.7808,1.6575,32555,-8.6106,-11.4728,3.399,0.2748,0.1971,1.2219,32841,-0.5633,12.1733,-2.0871,-0.6541,-0.4506,-1.8237
34170,-10.2548,0.6596,1.9571,-0.0362,0.3941,-0.3899,1.78,1.6575,32557,-7.9535,-10.1537,2.6215,0.7041,0.0959,1.6171,32843,-0.3129,12.3274,-1.6634,-0.7436,-0.6487,-1.943
34171,-10.7892,0.7053,2.063,0.0011,0.4645,-0.5369,1.7808,1.6575,32558,-2.075,-10.0165,1.0664,0.7201,-0.8117,1.5809,32844,-0.0337,12.2841,-1.4997,-0.7649,-0.718,-2.0197
34172,-10.7892,0.7053,2.063,0.0011,0.4645,-0.5369,1.78,1.6575,32558,-2.075,-10.0165,1.0664,0.7201,-0.8117,1.5809,32844,-0.0337,12.2841,-1.4997,-0.7649,-0.718,-2.0197
34173,-10.7892,0.7053,2.063,0.0011,0.4645,-0.5369,1.78,1.6575,32558,-2.075,-10.0165,1.0664,0.7201,-0.8117,1.5809,32844,-0.0337,12.2841,-1.4997,-0.7649,-0.718,-2.0197
34174,-10.7892,0.7053,2.063,0.0011,0.4645,-0.5369,1.7808,1.6575,32558,-2.075,-10.0165,1.0664,0.7201,-0.8117,1.5809,32844,-0.0337,12.2841,-1.4997,-0.7649,-0.718,-2.0197
34175,-10.7892,0.7053,2.063,0.0011,0.4645,-0.6264,1.7808,1.6575,32559,5.6594,-10.4016,-2.6046,0.4719,-0.7318,1.4594,32845,0.1011,12.2119,-1.3192,-0.7894,-0.7702,-2.1018
34176,-11.1021,0.6837,2.0606,0.017,0.49,-0.6264,1.78,1.6575,32560,7.5539,-10.3029,-4.4437,0.2077,0.0724,1.3231,32846,0.2816,12.0795,-1.0881,-0.8266,-0.8746,-2.1572
34177,-11.2514,0.65,2.0004,0.0469,0.5177,-0.685,1.7808,1.6575,32560,7.5539,-10.3029,-4.4437,0.2077,0.0724,1.3231,32846,0.2816,12.0795,-1.0881,-0.8266,-0.8746,-2.1572
34178,-11.2514,0.65,2.0004,0.0469,0.5177,-0.685,1.7808,1.6575,32560,7.5539,-10.3029,-4.4437,0.2077,0.0724,1.3231,32846,0.2816,12.0795,-1.0881,-0.8266,-0.8746,-2.1572
34179,-11.4223,0.6114,1.9113,0.0831,0.5444,-0.7702,1.78,1.6575,32561,6.8534,-10.6183,-4.6989,0.1822,0.5007,1.3113,32846,0.2816,12.0795,-1.0881,-0.8266,-0.8746,-2.1572
34180,-11.4223,0.6114,1.9113,0.0831,0.5444,-0.7702,1.78,1.6575,32561,6.8534,-10.6183,-4.6989,0.1822,0.5007,1.3113,32846,0.2816,12.0795,-1.0881,-0.8266,-0.8746,-2.1572
34181,-11.4993,0.5561,1.8536,0.1097,0.5603,-0.8256,1.78,1.6575,32562,6.449,-11.4127,-2.2363,0.3164,0.9481,1.3241,32848,0.4526,11.9254,-0.8618,-0.8575,-0.9417,-2.2935
34182,-11.4993,0.5561,1.8536,0.1097,0.5603,-0.8256,1.78,1.6575,32563,5.0552,-12.2576,-0.9003,0.4517,1.2069,1.3625,32848,0.4526,11.9254,-0.8618,-0.8575,-0.9417,-2.2935
34183,-11.5186,0.5007,1.7789,0.1555,0.5816,-0.9055,1.78,1.6575,32563,5.0552,-12.2576,-0.9003,0.4517,1.2069,1.3625,32849,0.7679,11.7425,-0.8546,-0.8948,-0.98,-2.3723
34184,-11.4897,0.4333,1.6971,0.1886,0.5944,-0.9598,1.78,1.6575,32564,3.8347,-12.2913,1.3336,0.5816,1.2251,1.4051,32850,0.9966,11.6149,-0.9436,-0.9257,-0.946,-2.4267
34185,-11.4897,0.4333,1.6971,0.1886,0.5944,-1.0397,1.78,1.6575,32565,3.2907,-11.7039,2.1858,0.5795,1.0567,1.452,32851,0.7751,11.6028,-1.0399,-0.9406,-0.8618,-2.5066
34186,-11.3356,0.3515,1.6369,0.2898,0.636,-1.3625,1.78,1.6567,32566,3.2955,-11.326,2.4024,0.4826,0.9012,1.4775,32852,0.2768,11.6486,-1.076,-0.9779,-0.8746,-2.547
34187,-11.2442,0.3563,1.6827,0.3579,0.669,-1.1654,1.7808,1.6575,32567,3.0548,-11.2779,2.0678,0.4293,0.8938,1.5084,32853,0.4309,11.6101,-1.1844,-1.0312,-0.898,-2.6376
34188,-11.0612,0.3731,1.7115,0.4027,0.6924,-1.2378,1.7808,1.6583,32568,2.7924,-11.4608,1.3529,0.3771,0.9278,1.5137,32854,0.3057,11.598,-1.2036,-1.0354,-0.832,-2.9827
34189,-10.9649,0.4044,1.8488,0.4666,0.7286,-1.2836,1.7808,1.6575,32569,2.3543,-11.4078,0.8305,0.392,1.0024,1.5276,32855,-0.0578,11.6582,-1.8656,-1.0301,-0.8149,-2.8261
34190,-10.8397,0.4405,1.933,0.5007,0.7617,-1.3508,1.78,1.6575,32570,1.5791,-11.4127,0.1902,0.3494,1.0546,1.5127,32856,-0.1613,11.8652,-1.6393,-1.0227,-0.8554,-2.9305
34191,-10.7675,0.4887,2.063,0.5454,0.7808,-1.3934,1.78,1.6575,32571,0.8931,-11.5427,-0.1324,0.2716,1.0578,1.5031,32857,-0.2142,12.0072,-2.1135,-1.0109,-0.848,-3.0062
34192,-10.7675,0.4887,2.063,0.5454,0.7808,-1.4583,1.7808,1.6575,32572,0.1829,-11.9856,-0.4694,0.2376,0.9641,1.5319,32857,-0.2142,12.0072,-2.1135,-1.0109,-0.848,-3.0062
34193,-10.7025,0.5127,2.1424,0.5678,0.8096,-1.4583,1.78,1.6567,32573,0.1492,-12.4333,-0.5416,0.1832,0.7872,1.5425,32859,-0.6861,12.5922,-2.2676,-0.9534,-0.7851,-3.1606
34194,-10.6905,0.6211,2.3422,0.6072,0.8501,-1.5585,1.7808,1.6575,32574,0.4165,-13.1073,-0.6837,0.1822,0.6583,1.5745,32860,-0.7125,12.6837,-2.4674,-0.9044,-0.7159,-3.2224
34195,-10.7844,0.7174,2.4337,0.6136,0.8607,-1.5926,1.78,1.6575,32575,0.7799,-13.2229,-1.2879,0.1747,0.5241,1.5936,32861,0.2142,12.7992,-2.932,-0.8426,-0.6647,-3.2629
34196,-10.8566,0.8209,2.465,0.6157,0.8725,-1.6416,1.78,1.6575,32576,1.0134,-13.2277,-1.7067,0.1641,0.5113,1.6267,32861,0.2142,12.7992,-2.932,-0.8426,-0.6647,-3.2629
34197,-10.9216,0.987,2.4987,0.6125,0.8778,-1.6852,1.7808,1.6575,32577,0.7631,-13.064,-2.1376,0.1917,0.5156,1.6416,32861,0.2142,12.7992,-2.932,-0.8426,-0.6647,-3.2629
34198,-10.9649,1.076,2.4746,0.6051,0.8831,-1.7087,1.78,1.6575,32578,0.1011,-12.8113,-2.3133,0.2344,0.4538,1.6469,32862,-0.2648,12.8835,-3.1198,-0.7414,-0.4645,-3.3172
34199,-11.0034,1.1964,2.4674,0.5987,0.8874,-1.7364,1.7808,1.6583,32579,-0.4863,-12.378,-2.3687,0.2748,0.391,1.6352,32865,-0.4718,13.247,-2.1978,-0.489,-0.3356,-3.0179
34200,-11.0636,1.2903,2.4313,0.5944,0.8895,-1.7534,1.7808,1.6575,32580,-0.8112,-12.0506,-2.3832,0.3153,0.2695,1.6085,32866,-0.5633,13.3553,-1.5503,-0.3686,-0.3121,-3.2182
34201,-11.0853,1.3384,2.4433,0.5923,0.8884,-1.7705,1.78,1.6575,32581,-1.2108,-11.521,-2.3182,0.3483,0.1854,1.5872,32866,-0.5633,13.3553,-1.5503,-0.3686,-0.3121,-3.2182
34202,-11.0853,1.3384,2.4433,0.5923,0.8884,-1.7705,1.78,1.6575,32581,-1.2108,-11.521,-2.3182,0.3483,0.1854,1.5872,32867,-1.0808,13.7573,-1.584,-0.2908,-0.2908,-3.1393
34203,-11.1214,1.4034,2.4385,0.5891,0.8884,-1.7769,1.7808,1.6575,32582,-1.348,-11.1166,-2.3302,0.4005,0.0586,1.5585,32868,-1.5815,13.9956,-2.1472,-0.2344,-0.2333,-3.0562
34204,-11.1551,1.4419,2.4626,0.5848,0.881,-1.7801,1.7808,1.6575,32583,-1.3047,-10.6664,-2.3904,0.4016,-0.0064,1.5052,32869,-2.53,13.7717,-2.6359,-0.2365,-0.1609,-2.872
34205,-11.1671,1.519,2.5204,0.5816,0.8714,-1.7779,1.78,1.6575,32584,-1.3288,-10.5027,-2.4072,0.4037,-0.1129,1.4743,32870,-3.334,13.5503,-3.1824,-0.228,-0.2067,-2.7271
34206,-11.1671,1.519,2.5204,0.5816,0.8714,-1.7779,1.78,1.6575,32585,-1.0664,-10.3727,-2.3374,0.4155,-0.2748,1.4211,32871,-3.2064,13.8175,-3.2594,-0.1939,-0.5124,-2.5875
34207,-11.0877,1.6008,2.6263,0.5539,0.8426,-1.7598,1.7808,1.6575,32586,-0.6114,-10.1874,-2.2363,0.4378,-0.3398,1.3912,32872,-1.2494,14.0726,-3.736,-0.2461,-0.6008,-2.5449
34208,-11.0203,1.6128,2.7033,0.5316,0.8192,-1.7353,1.78,1.6567,32587,-0.0481,-10.0189,-2.2098,0.4463,-0.3569,1.3603,32873,0.1396,12.7872,-3.9117,-0.7148,-0.2461,-2.5321
34209,-10.9144,1.6297,2.7442,0.5124,0.8021,-1.7066,1.7808,1.6575,32588,0.2479,-9.9491,-2.2821,0.4218,-0.359,1.3284,32873,0.1396,12.7872,-3.9117,-0.7148,-0.2461,-2.5321
34210,-10.8181,1.6465,2.7779,0.4772,0.7744,-1.6842,1.7808,1.6575,32589,0.349,-10.0357,-2.2002,0.3856,-0.3132,1.289,32875,-8.7406,6.8486,-2.7394,-1.0504,0.914,-2.1412
34211,-10.6448,1.6634,2.8213,0.4517,0.7425,-1.6469,1.7808,1.6575,32590,0.2865,-10.2331,-1.9619,0.3633,-0.3281,1.2591,32875,-8.7406,6.8486,-2.7394,-1.0504,0.914,-2.1412
34212,-10.5412,1.6754,2.8959,0.4101,0.7212,-1.6181,1.7808,1.6575,32591,0.4887,-10.3077,-1.8367,0.3388,-0.3164,1.224,32877,-13.0881,9.3328,-4.2584,0.0245,-2.4341,-0.4485
34213,-10.4353,1.6851,2.944,0.3835,0.6903,-1.567,1.78,1.6575,32592,0.6548,-10.445,-1.5166,0.3206,-0.2461,1.192,32878,1.5623,9.4989,-7.5755,0.1928,-2.7004,0.2716
34214,-10.4353,1.6851,2.9777,0.3494,0.669,-1.5287,1.7808,1.6575,32593,0.532,-10.6086,-1.194,0.2876,-0.1555,1.1579,32879,8.0714,9.0849,-9.4002,0.4751,-1.2368,0.4069
34215,-10.3366,1.6995,2.985,0.3249,0.6381,-1.4669,1.7808,1.6575,32594,0.2191,-10.7194,-1.1771,0.2844,-0.1385,1.1185,32880,7.2722,9.21,-8.991,0.5827,0.3079,0.572
34216,-10.3535,1.7139,2.9296,0.3153,0.6189,-1.4253,1.7808,1.6575,32595,0.1204,-10.6086,-1.3962,0.3047,-0.1278,1.0983,32881,4.7398,10.0694,-7.8644,0.425,0.4272,0.7553
34217,-10.392,1.7212,2.8935,0.3068,0.5891,-1.3614,1.7808,1.6575,32596,-0.2022,-10.6953,-1.5141,0.2866,-0.1119,1.0504,32882,3.9142,10.3222,-7.0171,-0.1545,0.1193,1.0589
34218,-10.5124,1.6899,2.8477,0.3057,0.5571,-1.2964,1.7808,1.6583,32597,-0.5777,-10.7747,-1.7886,0.3036,-0.1672,1.0312,32883,5.1659,9.7348,-5.3802,-0.3643,0.0714,1.2293
34219,-10.6111,1.6321,2.79,0.3143,0.5348,-1.2506,1.7808,1.6575,32598,-0.7511,-10.7507,-1.8849,0.3601,-0.3121,0.9992,32884,5.5246,8.7888,-4.061,-0.6445,0.2035,1.4434
34220,-10.6111,1.6321,2.79,0.3143,0.5348,-1.2506,1.7808,1.6575,32599,-0.6138,-10.6255,-1.6658,0.3952,-0.4218,0.9758,32884,5.5246,8.7888,-4.061,-0.6445,0.2035,1.4434
34221,-10.7844,1.5864,2.7298,0.3281,0.5113,-1.1846,1.7808,1.6575,32599,-0.6138,-10.6255,-1.6658,0.3952,-0.4218,0.9758,32885,4.9733,7.1278,-2.1208,-0.6967,0.3121,1.8589
34222,-10.8999,1.5021,2.6889,0.3633,0.4751,-1.1409,1.78,1.6567,32600,-0.4694,-10.5124,-1.4804,0.4282,-0.5795,0.9566,32886,4.2608,6.1938,-0.3827,-0.522,0.3601,1.7236
34223,-11.0756,1.4323,2.6455,0.3952,0.4389,-1.0749,1.78,1.6575,32601,-0.2937,-10.5412,-1.1747,0.425,-0.6583,0.9502,32886,4.2608,6.1938,-0.3827,-0.522,0.3601,1.7236
34224,-11.261,1.3432,2.6022,0.4538,0.4144,-1.0301,1.78,1.6567,32602,-0.1517,-10.5701,-1.1097,0.4165,-0.7276,0.9502,32887,3.4159,5.7027,-0.2455,-0.2993,0.3121,1.8173
34225,-11.3404,1.2927,2.5733,0.523,0.3728,-0.9662,1.7808,1.6575,32603,-0.2552,-10.5653,-1.1386,0.3984,-0.7233,0.946,32889,1.9137,5.9049,-0.6355,0.0149,0.4282,2.1422
34226,-11.4295,1.2494,2.5685,0.572,0.3451,-0.9257,1.7808,1.6567,32604,-0.4453,-10.6375,-1.2036,0.3814,-0.7297,0.9406,32890,1.1747,6.2058,-0.609,0.0469,0.3206,2.3095
34227,-11.4656,1.2253,2.5709,0.6487,0.3015,-0.8639,1.78,1.6567,32605,-0.4911,-10.6977,-1.2903,0.3878,-0.7361,0.9374,32891,1.6634,6.2636,-0.8112,0.0511,0.2194,2.5247
34228,-11.468,1.2253,2.5517,0.6999,0.2727,-0.8245,1.7808,1.6583,32606,-0.5031,-10.7338,-1.4636,0.3899,-0.7148,0.93,32892,1.8223,6.2082,-1.2132,0.0735,0.2376,2.6493
34229,-11.4319,1.2494,2.5589,0.7723,0.2301,-0.7681,1.78,1.6575,32607,-0.6138,-10.7796,-1.5141,0.3973,-0.751,0.9183,32893,1.8175,6.124,-1.4299,0.0842,0.2855,2.8656
34230,-11.3477,1.3095,2.5805,0.8149,0.2003,-0.7191,1.7808,1.6575,32608,-0.0241,-10.6929,-1.7067,0.4165,-0.7819,0.9129,32894,1.6875,5.9796,-1.5551,0.1182,0.3292,3.02
34231,-11.249,1.3769,2.5878,0.8714,0.1598,-0.6871,1.7808,1.6575,32609,0.2167,-10.5244,-1.8247,0.4208,-0.7052,0.9087,32895,1.6923,5.9266,-1.5382,0.1672,0.3696,3.2533
34232,-11.0588,1.4034,2.6046,0.9055,0.1204,-0.6445,1.7808,1.6575,32610,0.0674,-10.327,-1.9017,0.4091,-0.653,0.9076,32896,1.7549,5.9747,-1.4829,0.2109,0.3856,3.395
34233,-10.9192,1.4492,2.5998,0.9513,0.0948,-0.6179,1.78,1.6575,32611,0.0506,-10.2403,-1.933,0.391,-0.6264,0.9044,32897,1.8367,6.1529,-1.4973,0.3036,0.375,3.558
34234,-10.6785,1.4636,2.5637,0.9768,0.0607,-0.5784,1.7808,1.6567,32612,0.2167,-10.1946,-1.8849,0.3782,-0.6115,0.9055,32898,2.1232,6.4875,-1.5382,0.3601,0.3888,3.6975
34235,-10.4498,1.4949,2.5252,1.0077,0.0405,-0.555,1.78,1.6575,32613,0.2768,-10.1994,-1.9354,0.359,-0.5763,0.9129,32899,2.1785,6.6801,-1.4395,0.4133,0.5507,3.7934
34236,-10.2789,1.5021,2.477,1.0312,0.0149,-0.522,1.78,1.6567,32614,0.1348,-10.3126,-2.1015,0.3483,-0.5348,0.9257,32900,1.7139,6.8799,-1.2855,0.4538,0.6615,3.9234
34237,-10.0429,1.5117,2.4144,1.0418,0,-0.49,1.78,1.6575,32615,-0.0481,-10.3727,-2.3326,0.3483,-0.5071,0.9278,32901,1.2518,7.2963,-1.141,0.5177,0.7222,4.0086
34238,-9.8937,1.5069,2.3832,1.0514,-0.017,-0.4677,1.78,1.6575,32616,-0.544,-10.3751,-2.2748,0.3547,-0.506,0.9236,32901,1.2518,7.2963,-1.141,0.5177,0.7222,4.0086
34239,-9.8937,1.5069,2.3832,1.0514,-0.017,-0.4677,1.78,1.6567,32616,-0.544,-10.3751,-2.2748,0.3547,-0.506,0.9236,32902,0.7053,7.6189,-1.0833,0.5539,0.7191,4.1354
34240,-9.6795,1.5021,2.3807,1.0546,-0.0256,-0.4485,1.7808,1.6583,32617,-0.8209,-10.4016,-2.0028,0.3686,-0.5358,0.9204,32903,-0.207,8.0281,-1.076,0.604,0.7222,4.2174
34241,-9.5398,1.4925,2.323,1.0546,-0.033,-0.4229,1.78,1.6575,32618,-0.8931,-10.3968,-1.8319,0.3941,-0.604,0.9172,32904,-0.077,8.2616,-1.1194,0.6605,0.7191,4.3356
34242,-9.3449,1.4395,2.2893,1.0514,-0.0352,-0.4005,1.78,1.6575,32619,-0.7101,-10.3511,-1.8199,0.4069,-0.6434,0.9172,32905,-0.5537,8.6323,-1.2373,0.7031,0.7095,4.4155
34243,-9.2293,1.4443,2.2869,1.044,-0.0362,-0.3888,1.78,1.6567,32620,-0.6211,-10.3511,-1.9162,0.424,-0.6424,0.9129,32906,-0.8064,8.8851,-1.3119,0.7659,0.6977,4.5423
34244,-9.0921,1.4467,2.2893,1.0322,-0.0341,-0.3718,1.7808,1.6575,32621,-0.6427,-10.2909,-1.7958,0.44,-0.6306,0.9076,32907,-1.1386,9.2847,-1.3745,0.816,0.6977,4.6744
34245,-8.9862,1.454,2.2893,1.0088,-0.0309,-0.3622,1.7792,1.6567,32622,-0.6235,-10.2259,-1.6827,0.4549,-0.6328,0.9055,32908,-1.3625,9.5928,-1.3625,0.8948,0.6988,4.7607
34246,-8.9212,1.4588,2.2772,0.9875,-0.0245,-0.3526,1.7808,1.6575,32623,-0.5103,-10.1489,-1.6778,0.4591,-0.6285,0.9044,32909,-1.6393,10.1104,-1.3769,0.947,0.6764,4.8768
34247,-8.8297,1.454,2.27,0.9513,-0.0202,-0.3494,1.7808,1.6575,32624,-0.4116,-10.0405,-1.6369,0.4602,-0.604,0.9055,32910,-1.6899,10.4353,-1.4564,1.0152,0.6424,4.9407
34248,-8.7984,1.4323,2.3109,0.9087,-0.0107,-0.3483,1.7808,1.6575,32625,-0.3394,-10.0285,-1.6152,0.4517,-0.5433,0.9076,32911,-1.6514,10.871,-1.584,1.0589,0.6519,5.0089
34249,-8.7575,1.3577,2.3206,0.8778,-0.0064,-0.3494,1.78,1.6567,32626,-0.4863,-10.0935,-1.4901,0.4431,-0.5252,0.9097,32912,-1.584,11.4391,-1.7597,1.1207,0.6967,5.0355
34250,-8.7575,1.3577,2.3206,0.8778,0.0011,-0.3579,1.78,1.6575,32627,-0.5801,-10.1368,-1.3817,0.4431,-0.5092,0.9151,32913,-1.6273,11.8652,-1.7741,1.1526,0.8021,5.0632
34251,-8.6997,1.2181,2.3206,0.8032,0.0064,-0.3728,1.7808,1.6583,32628,-0.4935,-10.2283,-1.2975,0.4421,-0.5124,0.9215,32914,-1.8969,12.4285,-1.7476,1.1824,0.8778,5.0771
34252,-8.6708,1.1603,2.2965,0.7617,0.017,-0.3846,1.7808,1.6575,32629,-0.4935,-10.3414,-1.2686,0.4453,-0.4804,0.9278,32915,-2.1689,12.7318,-1.7067,1.2187,0.9747,5.0898
34253,-8.6395,1.0712,2.2941,0.7361,0.0245,-0.4048,1.7808,1.6575,32630,-0.6403,-10.3944,-1.2421,0.4527,-0.4634,0.9364,32916,-2.6287,13.2446,-1.6345,1.2528,1.0173,5.0898
34254,-8.6323,1.0207,2.2796,0.702,0.0352,-0.4208,1.7808,1.6575,32631,-0.7077,-10.4113,-1.2373,0.4634,-0.4495,0.9417,32917,-2.9898,13.6129,-1.6345,1.3018,1.0535,5.0781
34255,-8.6299,0.9966,2.3037,0.6818,0.0447,-0.4463,1.78,1.6575,32632,-0.8907,-10.4233,-1.2542,0.4677,-0.4389,0.9545,32918,-3.5194,14.1039,-1.7164,1.3305,1.0674,5.0462
34256,-8.6082,0.9797,2.323,0.6509,0.0511,-0.4634,1.78,1.6575,32633,-1.0399,-10.3848,-1.2855,0.4772,-0.4538,0.9662,32919,-3.8347,14.3735,-1.8367,1.3625,1.0951,5.0174
34257,-8.589,0.987,2.3543,0.6221,0.0618,-0.489,1.78,1.6575,32634,-1.0327,-10.3414,-1.3047,0.4826,-0.4975,0.9843,32920,-4.2776,14.6119,-1.8391,1.3699,1.1398,4.9663
34258,-8.5312,0.9942,2.3783,0.6029,0.066,-0.5071,1.78,1.6575,32635,-0.9147,-10.3294,-1.608,0.4985,-0.5135,0.9982,32920,-4.2776,14.6119,-1.8391,1.3699,1.1398,4.9663
34259,-8.5312,0.9942,2.3783,0.6029,0.066,-0.5071,1.7808,1.6575,32635,-0.9147,-10.3294,-1.608,0.4985,-0.5135,0.9982,32921,-4.6363,14.5854,-1.6177,1.3582,1.2389,4.9332
34260,-8.4807,1.0086,2.4072,0.5784,0.0714,-0.5284,1.78,1.6575,32636,-0.8136,-10.2765,-1.8512,0.5188,-0.5167,1.0195,32922,-5.1659,14.4241,-1.413,1.3486,1.3199,4.8885
34261,-8.382,1.0688,2.4457,0.5603,0.0767,-0.5412,1.7808,1.6575,32637,-0.6764,-10.2307,-2.2748,0.5422,-0.5262,1.0333,32923,-5.4548,14.2099,-1.1555,1.3518,1.3657,4.8544
34262,-8.3338,1.0857,2.4939,0.5305,0.0852,-0.5571,1.7808,1.6583,32638,-0.7655,-10.2139,-2.5396,0.5529,-0.4751,1.0504,32924,-5.7051,14.1256,-0.999,1.3625,1.4605,4.7926
34263,-8.2616,1.1194,2.53,0.5071,0.0905,-0.5678,1.7808,1.6575,32639,-1.2373,-10.1681,-2.5661,0.5678,-0.4623,1.0621,32925,-5.9579,14.1376,-0.8642,1.3902,1.5212,4.7404
34264,-8.2423,1.1434,2.5902,0.4698,0.1023,-0.5699,1.7808,1.6583,32641,-1.6417,-10.0117,-2.3398,0.5816,-0.5017,1.0876,32927,-6.408,14.4434,-0.7775,1.4147,1.6043,4.5785
34265,-8.2809,1.1531,2.6311,0.4442,0.1119,-0.5689,1.78,1.6575,32641,-1.6417,-10.0117,-2.3398,0.5816,-0.5017,1.0876,32927,-6.408,14.4434,-0.7775,1.4147,1.6043,4.5785
34266,-8.3338,1.1555,2.7105,0.4048,0.1193,-0.5646,1.78,1.6575,32643,-1.7501,-10.0767,-1.7645,0.5902,-0.587,1.1057,32929,-6.9545,14.9296,-0.7727,1.3614,1.6512,4.3686
34267,-8.4349,1.141,2.7683,0.3771,0.1246,-0.5518,1.78,1.6575,32643,-1.7501,-10.0767,-1.7645,0.5902,-0.587,1.1057,32929,-6.9545,14.9296,-0.7727,1.3614,1.6512,4.3686
34268,-8.512,1.1314,2.8165,0.3409,0.1236,-0.5422,1.7808,1.6575,32645,-1.4034,-10.2163,-1.0568,0.6083,-0.621,1.1153,32930,-7.4022,15.0716,-0.5801,1.2751,1.6352,4.2994
34269,-8.5673,1.1145,2.855,0.3089,0.1225,-0.522,1.78,1.6575,32645,-1.4034,-10.2163,-1.0568,0.6083,-0.621,1.1153,32930,-7.4022,15.0716,-0.5801,1.2751,1.6352,4.2994
34270,-8.6901,1.1001,2.8887,0.2887,0.1204,-0.5071,1.7808,1.6575,32646,-1.6995,-10.4979,-0.6283,0.6157,-0.6179,1.1239,32932,-8.5986,14.7996,-0.8498,1.127,1.4701,4.097
34271,-8.7912,1.0977,2.8863,0.261,0.115,-0.4847,1.78,1.6575,32647,-1.7886,-10.676,-0.4502,0.6338,-0.6956,1.1409,32933,-9.4869,14.7298,-1.194,1.0962,1.4093,3.9276
34272,-8.9019,1.0905,2.8983,0.2461,0.1108,-0.4602,1.7808,1.6575,32648,-1.4732,-10.9047,-0.3635,0.6392,-0.7542,1.1601,32934,-10.2692,14.6552,-1.6514,1.0365,1.3689,3.8083
34273,-8.9597,1.0857,2.879,0.228,0.1001,-0.4421,1.78,1.6567,32649,-1.1988,-11.0973,-0.4068,0.6445,-0.7979,1.1963,32935,-11.5595,14.4217,-1.7452,0.9268,1.2304,3.64
34274,-9.0175,1.0929,2.8381,0.2184,0.0916,-0.4176,1.7808,1.6567,32650,-0.9099,-11.3717,-0.4959,0.6519,-0.8032,1.2314,32936,-12.4478,13.6803,-1.7284,0.8501,1.0898,3.5335
34275,-9.0295,1.0857,2.7852,0.2099,0.0767,-0.4016,1.78,1.6575,32651,-0.7823,-11.509,-0.597,0.6658,-0.8,1.2591,32937,-12.4478,13.2373,-1.7091,0.7968,0.9033,3.3566
34276,-9.0295,1.0857,2.7852,0.2099,0.0767,-0.4016,1.7808,1.6575,32652,-0.6957,-11.8002,-0.7462,0.6764,-0.7894,1.306,32938,-12.6789,12.4983,-1.4419,0.7553,0.9332,3.2096
34277,-9.0584,1.0881,2.7515,0.2056,0.066,-0.376,1.7808,1.6583,32652,-0.6957,-11.8002,-0.7462,0.6764,-0.7894,1.306,32938,-12.6789,12.4983,-1.4419,0.7553,0.9332,3.2096
34278,-9.1234,1.0929,2.7394,0.2013,0.0597,-0.359,1.78,1.6575,32653,-0.6548,-12.0674,-0.8642,0.7052,-0.767,1.338,32939,-13.4492,12.0265,-0.6524,0.6871,0.98,2.938
34279,-9.186,1.0833,2.7418,0.1971,0.0522,-0.3356,1.7808,1.6575,32654,-0.7077,-12.1589,-0.8714,0.7308,-0.7254,1.3891,32940,-14.5517,11.5451,-0.1059,0.6477,0.9119,2.6408
34280,-9.186,1.0833,2.7418,0.196,0.049,-0.3217,1.7808,1.6567,32655,-0.8257,-12.2456,-0.7607,0.7734,-0.7116,1.4285,32941,-14.9489,11.1647,0.2528,0.5934,0.7499,2.4256
34281,-9.4267,1.0447,2.6961,0.1981,0.0458,-0.3015,1.78,1.6567,32656,-0.9364,-12.3876,-0.674,0.8149,-0.7191,1.486,32942,-15.3051,10.5966,0.2215,0.5763,0.6168,2.0666
34282,-9.5952,1.0086,2.6841,0.2035,0.0437,-0.0149,1.78,1.6575,32657,-0.946,-12.5633,-0.6524,0.849,-0.7382,1.5276,32943,-15.4327,10.4088,0.0289,0.5603,0.5539,1.8078
34283,-9.7156,1.011,2.66,0.2184,0.0415,-0.2706,1.78,1.6575,32658,-0.8136,-12.6692,-0.674,0.897,-0.783,1.5915,32944,-15.6133,10.3174,-0.0698,0.2503,0.4634,1.4019
34284,-9.9178,1.0279,2.6576,0.2301,0.0426,-0.2546,1.7808,1.6575,32659,-0.414,-12.8089,-0.8546,0.9374,-0.7979,1.6661,32945,-15.6759,10.0863,-0.2142,0.44,0.4027,1.127
34285,-10.0863,1.0833,2.6479,0.2525,0.0447,-0.245,1.78,1.6575,32660,-0.0217,-12.8209,-1.0399,0.9939,-0.7904,1.7215,32946,-15.7505,9.9178,-0.2672,0.3505,0.3164,0.6999
34286,-10.5075,1.2084,2.595,0.2887,0.0501,-0.2205,1.7808,1.6575,32662,0.2528,-13.4034,-0.8425,1.0504,-0.7159,1.8237,32948,-15.8179,9.8431,-0.3779,0.2099,0.1917,-0.0362
34287,-10.5075,1.2084,2.595,0.2887,0.0501,-0.2205,1.78,1.6575,32662,0.2528,-13.4034,-0.8425,1.0504,-0.7159,1.8237,32948,-15.8179,9.8431,-0.3779,0.2099,0.1917,-0.0362
34288,-10.7603,1.2469,2.5733,0.3004,0.0543,-0.2035,1.7808,1.6575,32663,0.5055,-13.5094,-0.7486,1.1089,-0.7585,1.9143,32949,-15.9768,10.25,-0.467,0.1534,0.1736,-0.4783
34289,-10.9673,1.3071,2.4939,0.3132,0.0565,-0.1917,1.7808,1.6575,32664,1.6417,-13.791,-0.5007,1.1281,-0.7393,1.9398,32950,-16.126,10.6303,-0.3852,0.0479,0.1268,-0.7744
34290,-11.0901,1.3505,2.4433,0.3238,0.0597,-0.1704,1.78,1.6575,32665,1.0688,-13.9475,-0.337,1.1739,-0.7585,2.0315,32951,-16.1573,11.1118,-0.1998,-0.0426,0.1033,-1.2155
34291,-11.2538,1.4082,2.3856,0.3302,0.0629,-0.1555,1.78,1.6575,32666,1.6514,-14.0052,-0.0024,1.2528,-0.7425,2.0794,32952,-15.9021,11.4897,-0.0433,-0.1651,0.0692,-1.5105
34292,-11.3477,1.4347,2.3663,0.3356,0.0692,-0.1289,1.7808,1.6575,32667,1.945,-14.0486,0.8473,1.3433,-0.7063,2.1859,32953,-14.3398,11.7304,0.4165,-0.2482,-0.033,-1.943
34293,-11.3477,1.4347,2.3663,0.3356,0.0746,-0.098,1.78,1.6575,32668,2.3807,-14.2339,0.674,1.3721,-0.6722,2.2371,32953,-14.3398,11.7304,0.4165,-0.2482,-0.033,-1.943
34294,-11.6101,1.5695,2.3519,0.3377,0.0831,-0.0788,1.78,1.6575,32669,2.5468,-14.4819,0.946,1.4285,-0.6274,2.3084,32955,-2.4385,12.6307,2.2941,-0.2141,-1.485,-2.0176
34295,-11.7593,1.6056,2.335,0.3345,0.0937,-0.049,1.78,1.6567,32670,3.0042,-14.5541,0.8786,1.4871,-0.62,2.3787,32956,9.316,14.3302,-0.2094,0.1278,-1.3625,-1.9249
34296,-11.7593,1.6056,2.335,0.3345,0.0937,-0.049,1.78,1.6575,32670,3.0042,-14.5541,0.8786,1.4871,-0.62,2.3787,32956,9.316,14.3302,-0.2094,0.1278,-1.3625,-1.9249
34297,-11.8628,1.6658,2.3206,0.327,0.1097,-0.0298,1.78,1.6575,32671,3.2907,-14.6215,0.6379,1.5425,-0.572,2.4277,32957,12.6091,14.0991,-2.2195,0.2248,0.049,-2.0016
34298,-12.0241,1.7188,2.3206,0.3174,0.1278,-0.0032,1.78,1.6575,32672,3.5266,-14.7924,0.4477,1.5713,-0.5039,2.4959,32958,9.6891,13.7669,-2.2146,0.114,0.9641,-2.1071
34299,-12.2046,1.8126,2.3591,0.3015,0.1406,0.0138,1.78,1.6567,32674,3.594,-14.9441,-0.0072,1.6522,-0.3803,2.6269,32959,6.449,14.2219,-0.8618,-0.3079,1.616,-2.2136
34300,-12.5705,2.0389,2.477,0.2205,0.1683,0.0724,1.7808,1.6575,32676,2.9416,-15.0139,-0.52,1.7204,-0.3302,2.7825,32962,-2.7178,10.1729,2.5204,-0.4485,1.5521,-2.253
34301,-12.597,2.1232,2.5372,0.1939,0.1651,0.0874,1.7808,1.6575,32677,2.7202,-15.2065,-0.8786,1.7364,-0.3579,2.8549,32963,-3.4616,10.6351,2.1882,-0.0362,1.1377,-2.2253
34302,-12.597,2.1232,2.5372,0.1939,0.1651,0.0874,1.78,1.6575,32677,2.7202,-15.2065,-0.8786,1.7364,-0.3579,2.8549,32963,-3.4616,10.6351,2.1882,-0.0362,1.1377,-2.2253
34303,-12.597,2.1232,2.5372,0.1939,0.1651,0.0874,1.78,1.6575,32677,2.7202,-15.2065,-0.8786,1.7364,-0.3579,2.8549,32963,-3.4616,10.6351,2.1882,-0.0362,1.1377,-2.2253
34304,-12.5705,2.1689,2.5926,0.147,0.1566,0.1108,1.78,1.6575,32677,2.7202,-15.2065,-0.8786,1.7364,-0.3579,2.8549,32964,-3.5892,11.5691,1.6249,0.1502,0.8149,-2.1625
34305,-12.4622,2.2411,2.6263,0.114,0.1481,0.1374,1.7808,1.6575,32678,2.8526,-15.3196,-1.2205,1.7726,-0.4208,2.987,32965,-2.855,12.7463,1.0279,0.2109,0.685,-2.1252
34306,-12.3419,2.3085,2.6528,0.0629,0.1289,0.1566,1.7808,1.6575,32680,3.529,-16.1284,-2.7033,1.8046,-0.489,3.232,32966,-3.5651,13.064,0.792,0.1246,0.5561,-2.09
34307,-12.0698,2.3519,2.6359,0.0277,0.114,0.1896,1.78,1.6575,32681,4.2151,-16.6508,-3.736,1.8067,-0.4218,3.3801,32967,-3.3244,12.9846,0.5585,0.0469,0.4059,-2.0602
34308,-11.8676,2.4241,2.5926,-0.0245,0.0948,0.2141,1.7808,1.6575,32682,4.1814,-17.2189,-4.6484,1.7918,-0.179,3.4887,32968,-2.5396,12.6259,-0.4405,-0.0245,0.1491,-2.0048
34309,-11.5836,2.4746,2.5468,-0.0629,0.0756,0.2578,1.78,1.6575,32683,3.7456,-17.5102,-4.9685,1.7907,0.0618,3.6176,32969,-1.0038,11.8604,-0.9557,-0.0085,0.0415,-1.9771
34310,-10.2042,2.5613,2.1472,-0.4581,-0.0277,0.5593,1.78,1.6575,32689,1.454,-16.5617,-6.7812,1.5542,0.0234,3.3929,32975,-1.7236,11.0829,-5.1491,-0.0533,0.163,-1.8014
34311,-10.2042,2.5613,2.1472,-0.4581,-0.0277,0.5593,1.78,1.6575,32689,1.454,-16.5617,-6.7812,1.5542,0.0234,3.3929,32975,-1.7236,11.0829,-5.1491,-0.0533,0.163,-1.8014
34312,-10.2042,2.5613,2.1472,-0.4581,-0.0277,0.5593,1.7808,1.6575,32689,1.454,-16.5617,-6.7812,1.5542,0.0234,3.3929,32975,-1.7236,11.0829,-5.1491,-0.0533,0.163,-1.8014
34313,-10.0839,2.5252,2.1208,-0.5145,-0.0394,0.6221,1.7808,1.6575,32690,0.7872,-15.3677,-6.9641,1.4786,0.1577,3.167,32976,-1.8969,10.4064,-4.8987,-0.082,0.2045,-1.7801
34314,-10.0839,2.5252,2.1208,-0.5145,-0.0394,0.6221,1.7808,1.6575,32690,0.7872,-15.3677,-6.9641,1.4786,0.1577,3.167,32976,-1.8969,10.4064,-4.8987,-0.082,0.2045,-1.7801
34315,-10.0839,2.5252,2.1208,-0.5145,-0.0394,0.6221,1.7808,1.6575,32690,0.7872,-15.3677,-6.9641,1.4786,0.1577,3.167,32976,-1.8969,10.4064,-4.8987,-0.082,0.2045,-1.7801
34316,-10.0381,2.518,2.0967,-0.5987,-0.0543,0.6637,1.7808,1.6575,32691,0.0891,-14.3591,-6.8919,1.3486,0.1332,2.9966,32977,-2.6744,10.2066,-4.8867,-0.1023,0.1353,-1.7097
34317,-10.0381,2.518,2.0967,-0.5987,-0.0543,0.6637,1.78,1.6575,32691,0.0891,-14.3591,-6.8919,1.3486,0.1332,2.9966,32977,-2.6744,10.2066,-4.8867,-0.1023,0.1353,-1.7097
34318,-10.0309,2.5228,2.0798,-0.6573,-0.0724,0.7233,1.78,1.6575,32692,0.7944,-14.7491,-6.4104,1.2464,-0.0724,2.8198,32978,-3.5242,10.1128,-4.8217,-0.1012,0.0096,-1.6384
34319,-10.0309,2.5228,2.0798,-0.6573,-0.0724,0.7233,1.78,1.6575,32692,0.7944,-14.7491,-6.4104,1.2464,-0.0724,2.8198,32978,-3.5242,10.1128,-4.8217,-0.1012,0.0096,-1.6384
34320,-10.0429,2.5661,2.0558,-0.7499,-0.0831,0.7617,1.78,1.6575,32693,3.3051,-14.7539,-5.9458,1.289,0.081,2.7558,32979,-3.6782,10.2355,-3.9358,-0.0863,-0.326,-1.5212
34321,-10.1152,2.5685,2.0437,-0.8117,-0.0991,0.8117,1.7808,1.6575,32694,2.2796,-12.3226,-6.526,1.6224,1.4594,2.5641,32980,-2.7202,10.5003,-3.8203,-0.0937,-0.5625,-1.4061
34322,-10.2909,2.5228,2.0124,-0.9044,-0.1108,0.8416,1.78,1.6567,32695,-11.4367,-8.5794,-5.5101,1.4317,2.3095,2.3074,32981,-1.7404,10.469,-2.8092,-0.1076,-0.7489,-1.3497
34323,-10.4329,2.4794,1.9715,-0.9896,-0.1342,0.8778,1.78,1.6575,32696,-18.9593,-9.4171,0.3876,1.1143,-0.1491,1.7332,32982,-0.4646,10.2981,-2.0895,-0.0969,-0.7883,-1.2943
